[{"success":true,"trial_type":"fullscreen","trial_index":0,"time_elapsed":2204,"internal_node_id":"0.0-0.0","subject_id":"6072c51dc97bb5778fa9435d","study_id":"6197b3f67c2b5cd3b6d9596a","session_id":"6197b9e86f054380b61d078d","condition":"full-information","relevant_dimensions":["antennae","wings"],"bee_group":{"antennae":"B","wings":"2","pattern":"X","legs":"X"},"bonus":0.6800000000000003},{"success":true,"timeout":false,"failed_images":[],"failed_audio":[],"failed_video":[],"trial_type":"preload","trial_index":1,"time_elapsed":4964,"internal_node_id":"0.0-1.0","subject_id":"6072c51dc97bb5778fa9435d","study_id":"6197b3f67c2b5cd3b6d9596a","session_id":"6197b9e86f054380b61d078d","condition":"full-information","relevant_dimensions":["antennae","wings"],"bee_group":{"antennae":"B","wings":"2","pattern":"X","legs":"X"},"bonus":0.6800000000000003},{"rt":2577.5,"stimulus":"Welcome! Press any key to begin.","response":" ","trial_type":"html-keyboard-response","trial_index":2,"time_elapsed":7542,"internal_node_id":"0.0-2.0","subject_id":"6072c51dc97bb5778fa9435d","study_id":"6197b3f67c2b5cd3b6d9596a","session_id":"6197b9e86f054380b61d078d","condition":"full-information","relevant_dimensions":["antennae","wings"],"bee_group":{"antennae":"B","wings":"2","pattern":"X","legs":"X"},"bonus":0.6800000000000003},{"view_history":[{"page_index":0,"viewing_time":3073.199999988079},{"page_index":1,"viewing_time":7714.800000011921},{"page_index":2,"viewing_time":7789},{"page_index":3,"viewing_time":13184},{"page_index":4,"viewing_time":5469.100000023842},{"page_index":5,"viewing_time":5122.899999976158},{"page_index":6,"viewing_time":2264.199999988079},{"page_index":5,"viewing_time":386.80000001192093},{"page_index":4,"viewing_time":577.1000000238419},{"page_index":3,"viewing_time":5865.099999964237},{"page_index":4,"viewing_time":879},{"page_index":5,"viewing_time":1065},{"page_index":6,"viewing_time":6555.900000035763},{"page_index":7,"viewing_time":2823.899999976158},{"page_index":8,"viewing_time":3198},{"page_index":9,"viewing_time":1564},{"page_index":10,"viewing_time":2620.199999988079},{"page_index":11,"viewing_time":6930},{"page_index":12,"viewing_time":6698.800000011921},{"page_index":13,"viewing_time":1031},{"page_index":14,"viewing_time":1998}],"rt":86810.19999998808,"trial_type":"instructions","trial_index":3,"time_elapsed":94353,"internal_node_id":"0.0-3.0-0.0","subject_id":"6072c51dc97bb5778fa9435d","study_id":"6197b3f67c2b5cd3b6d9596a","session_id":"6197b9e86f054380b61d078d","condition":"full-information","relevant_dimensions":["antennae","wings"],"bee_group":{"antennae":"B","wings":"2","pattern":"X","legs":"X"},"bonus":0.6800000000000003},{"rt":10922.399999976158,"response":{"Q0":["Two or six legs","Stripes or spots on body","Single or double wings","Antennae or no antennae"]},"question_order":[0],"trial_type":"survey-multi-select","trial_index":4,"time_elapsed":105278,"internal_node_id":"0.0-3.0-1.0","subject_id":"6072c51dc97bb5778fa9435d","study_id":"6197b3f67c2b5cd3b6d9596a","session_id":"6197b9e86f054380b61d078d","condition":"full-information","relevant_dimensions":["antennae","wings"],"bee_group":{"antennae":"B","wings":"2","pattern":"X","legs":"X"},"correct":true,"bonus":0.6800000000000003},{"rt":17945.5,"response":{"Q1":"No.","Q2":"Based on the four features of the bee.","Q3":"You learn if it was friendly or dangerous, but do not alter your bonus."},"question_order":[0,1,2],"trial_type":"survey-multi-choice","trial_index":5,"time_elapsed":123225,"internal_node_id":"0.0-3.0-2.0","subject_id":"6072c51dc97bb5778fa9435d","study_id":"6197b3f67c2b5cd3b6d9596a","session_id":"6197b9e86f054380b61d078d","condition":"full-information","relevant_dimensions":["antennae","wings"],"bee_group":{"antennae":"B","wings":"2","pattern":"X","legs":"X"},"correct":true,"bonus":0.6800000000000003},{"rt":2090.899999976158,"stimulus":"<p>Congrats, you got everything right<br>When you're ready, click the button below to continue to the experiment.</p>","response":0,"trial_type":"html-button-response","trial_index":6,"time_elapsed":125318,"internal_node_id":"0.0-3.0-3.0","subject_id":"6072c51dc97bb5778fa9435d","study_id":"6197b3f67c2b5cd3b6d9596a","session_id":"6197b9e86f054380b61d078d","condition":"full-information","relevant_dimensions":["antennae","wings"],"bee_group":{"antennae":"B","wings":"2","pattern":"X","legs":"X"},"bonus":0.6800000000000003},{"rt":8807.300000011921,"stimulus":"bees-with-color/bee-B2DM.svg","response":1,"trial_type":"image-button-response","trial_index":7,"time_elapsed":134127,"internal_node_id":"0.0-4.0-0.0","subject_id":"6072c51dc97bb5778fa9435d","study_id":"6197b3f67c2b5cd3b6d9596a","session_id":"6197b9e86f054380b61d078d","condition":"full-information","relevant_dimensions":["antennae","wings"],"bee_group":{"antennae":"B","wings":"2","pattern":"X","legs":"X"},"action":"avoid","summary":"good-avoid","bonus":0.6800000000000003},{"rt":26186.30000001192,"stimulus":"\n                    <p><b>Action: <em>avoid</em></b></p>\n                    <p>This is the bee that you just saw.</p>\n                    <img src=\"bees-with-color/bee-B2DM.svg\" width=\"200\">\n                    <p><span class=\"greenText\">Good choice!</span>  This bee would have stung you.<br>Your bonus pay is unchanged, and remains at $0.54.</p>\n            ","response":0,"trial_type":"html-button-response","trial_index":8,"time_elapsed":160315,"internal_node_id":"0.0-4.0-1.0","subject_id":"6072c51dc97bb5778fa9435d","study_id":"6197b3f67c2b5cd3b6d9596a","session_id":"6197b9e86f054380b61d078d","condition":"full-information","relevant_dimensions":["antennae","wings"],"bee_group":{"antennae":"B","wings":"2","pattern":"X","legs":"X"},"bonus":0.6800000000000003},{"rt":2452.599999964237,"stimulus":"bees-with-color/bee-B1SF.svg","response":1,"trial_type":"image-button-response","trial_index":9,"time_elapsed":162769,"internal_node_id":"0.0-4.0-0.1","subject_id":"6072c51dc97bb5778fa9435d","study_id":"6197b3f67c2b5cd3b6d9596a","session_id":"6197b9e86f054380b61d078d","condition":"full-information","relevant_dimensions":["antennae","wings"],"bee_group":{"antennae":"B","wings":"2","pattern":"X","legs":"X"},"action":"avoid","summary":"bad-avoid","bonus":0.6800000000000003},{"rt":16060.899999976158,"stimulus":"\n                    <p><b>Action: <em>avoid</em></b></p>\n                    <p>This is the bee that you just saw.</p>\n                    <img src=\"bees-with-color/bee-B1SF.svg\" width=\"200\">\n                    <p><span class=\"redText\">Bad choice,</span> the bee was friendly.<br>Your bonus pay is unchanged, and remains at $0.54.</p>\n            ","response":0,"trial_type":"html-button-response","trial_index":10,"time_elapsed":178831,"internal_node_id":"0.0-4.0-1.1","subject_id":"6072c51dc97bb5778fa9435d","study_id":"6197b3f67c2b5cd3b6d9596a","session_id":"6197b9e86f054380b61d078d","condition":"full-information","relevant_dimensions":["antennae","wings"],"bee_group":{"antennae":"B","wings":"2","pattern":"X","legs":"X"},"bonus":0.6800000000000003},{"rt":3423.699999988079,"stimulus":"bees-with-color/bee-A1SF.svg","response":0,"trial_type":"image-button-response","trial_index":11,"time_elapsed":182256,"internal_node_id":"0.0-4.0-0.2","subject_id":"6072c51dc97bb5778fa9435d","study_id":"6197b3f67c2b5cd3b6d9596a","session_id":"6197b9e86f054380b61d078d","condition":"full-information","relevant_dimensions":["antennae","wings"],"bee_group":{"antennae":"B","wings":"2","pattern":"X","legs":"X"},"action":"harvest","summary":"good-harvest","bonus":0.6800000000000003},{"rt":7315.199999988079,"stimulus":"\n                    <p><b>Action: <em>harvest</em></b></p>\n                    <p>This is the bee that you just saw.</p>\n                    <img src=\"bees-with-color/bee-A1SF.svg\" width=\"200\">\n                    <p><span class=\"greenText\"><b>Successful harvest!</b></span><br>Your pay has increased by $0.02. Your bonus pay is now $0.56.</p>\n            ","response":0,"trial_type":"html-button-response","trial_index":12,"time_elapsed":189572,"internal_node_id":"0.0-4.0-1.2","subject_id":"6072c51dc97bb5778fa9435d","study_id":"6197b3f67c2b5cd3b6d9596a","session_id":"6197b9e86f054380b61d078d","condition":"full-information","relevant_dimensions":["antennae","wings"],"bee_group":{"antennae":"B","wings":"2","pattern":"X","legs":"X"},"bonus":0.6800000000000003},{"rt":2740.7999999523163,"stimulus":"bees-with-color/bee-A1SM.svg","response":1,"trial_type":"image-button-response","trial_index":13,"time_elapsed":192314,"internal_node_id":"0.0-4.0-0.3","subject_id":"6072c51dc97bb5778fa9435d","study_id":"6197b3f67c2b5cd3b6d9596a","session_id":"6197b9e86f054380b61d078d","condition":"full-information","relevant_dimensions":["antennae","wings"],"bee_group":{"antennae":"B","wings":"2","pattern":"X","legs":"X"},"action":"avoid","summary":"bad-avoid","bonus":0.6800000000000003},{"rt":6688.300000011921,"stimulus":"\n                    <p><b>Action: <em>avoid</em></b></p>\n                    <p>This is the bee that you just saw.</p>\n                    <img src=\"bees-with-color/bee-A1SM.svg\" width=\"200\">\n                    <p><span class=\"redText\">Bad choice,</span> the bee was friendly.<br>Your bonus pay is unchanged, and remains at $0.56.</p>\n            ","response":0,"trial_type":"html-button-response","trial_index":14,"time_elapsed":199004,"internal_node_id":"0.0-4.0-1.3","subject_id":"6072c51dc97bb5778fa9435d","study_id":"6197b3f67c2b5cd3b6d9596a","session_id":"6197b9e86f054380b61d078d","condition":"full-information","relevant_dimensions":["antennae","wings"],"bee_group":{"antennae":"B","wings":"2","pattern":"X","legs":"X"},"bonus":0.6800000000000003},{"rt":2148.300000011921,"stimulus":"bees-with-color/bee-A2SM.svg","response":1,"trial_type":"image-button-response","trial_index":15,"time_elapsed":201154,"internal_node_id":"0.0-4.0-0.4","subject_id":"6072c51dc97bb5778fa9435d","study_id":"6197b3f67c2b5cd3b6d9596a","session_id":"6197b9e86f054380b61d078d","condition":"full-information","relevant_dimensions":["antennae","wings"],"bee_group":{"antennae":"B","wings":"2","pattern":"X","legs":"X"},"action":"avoid","summary":"bad-avoid","bonus":0.6800000000000003},{"rt":2557.5,"stimulus":"\n                    <p><b>Action: <em>avoid</em></b></p>\n                    <p>This is the bee that you just saw.</p>\n                    <img src=\"bees-with-color/bee-A2SM.svg\" width=\"200\">\n                    <p><span class=\"redText\">Bad choice,</span> the bee was friendly.<br>Your bonus pay is unchanged, and remains at $0.56.</p>\n            ","response":0,"trial_type":"html-button-response","trial_index":16,"time_elapsed":203712,"internal_node_id":"0.0-4.0-1.4","subject_id":"6072c51dc97bb5778fa9435d","study_id":"6197b3f67c2b5cd3b6d9596a","session_id":"6197b9e86f054380b61d078d","condition":"full-information","relevant_dimensions":["antennae","wings"],"bee_group":{"antennae":"B","wings":"2","pattern":"X","legs":"X"},"bonus":0.6800000000000003},{"rt":1343.699999988079,"stimulus":"bees-with-color/bee-B1DM.svg","response":1,"trial_type":"image-button-response","trial_index":17,"time_elapsed":205057,"internal_node_id":"0.0-4.0-0.5","subject_id":"6072c51dc97bb5778fa9435d","study_id":"6197b3f67c2b5cd3b6d9596a","session_id":"6197b9e86f054380b61d078d","condition":"full-information","relevant_dimensions":["antennae","wings"],"bee_group":{"antennae":"B","wings":"2","pattern":"X","legs":"X"},"action":"avoid","summary":"bad-avoid","bonus":0.6800000000000003},{"rt":3073.100000023842,"stimulus":"\n                    <p><b>Action: <em>avoid</em></b></p>\n                    <p>This is the bee that you just saw.</p>\n                    <img src=\"bees-with-color/bee-B1DM.svg\" width=\"200\">\n                    <p><span class=\"redText\">Bad choice,</span> the bee was friendly.<br>Your bonus pay is unchanged, and remains at $0.56.</p>\n            ","response":0,"trial_type":"html-button-response","trial_index":18,"time_elapsed":208131,"internal_node_id":"0.0-4.0-1.5","subject_id":"6072c51dc97bb5778fa9435d","study_id":"6197b3f67c2b5cd3b6d9596a","session_id":"6197b9e86f054380b61d078d","condition":"full-information","relevant_dimensions":["antennae","wings"],"bee_group":{"antennae":"B","wings":"2","pattern":"X","legs":"X"},"bonus":0.6800000000000003},{"rt":1891.7999999523163,"stimulus":"bees-with-color/bee-B1DF.svg","response":1,"trial_type":"image-button-response","trial_index":19,"time_elapsed":210024,"internal_node_id":"0.0-4.0-0.6","subject_id":"6072c51dc97bb5778fa9435d","study_id":"6197b3f67c2b5cd3b6d9596a","session_id":"6197b9e86f054380b61d078d","condition":"full-information","relevant_dimensions":["antennae","wings"],"bee_group":{"antennae":"B","wings":"2","pattern":"X","legs":"X"},"action":"avoid","summary":"bad-avoid","bonus":0.6800000000000003},{"rt":1351.0999999642372,"stimulus":"\n                    <p><b>Action: <em>avoid</em></b></p>\n                    <p>This is the bee that you just saw.</p>\n                    <img src=\"bees-with-color/bee-B1DF.svg\" width=\"200\">\n                    <p><span class=\"redText\">Bad choice,</span> the bee was friendly.<br>Your bonus pay is unchanged, and remains at $0.56.</p>\n            ","response":0,"trial_type":"html-button-response","trial_index":20,"time_elapsed":211376,"internal_node_id":"0.0-4.0-1.6","subject_id":"6072c51dc97bb5778fa9435d","study_id":"6197b3f67c2b5cd3b6d9596a","session_id":"6197b9e86f054380b61d078d","condition":"full-information","relevant_dimensions":["antennae","wings"],"bee_group":{"antennae":"B","wings":"2","pattern":"X","legs":"X"},"bonus":0.6800000000000003},{"rt":1111.9000000357628,"stimulus":"bees-with-color/bee-B2SF.svg","response":1,"trial_type":"image-button-response","trial_index":21,"time_elapsed":212489,"internal_node_id":"0.0-4.0-0.7","subject_id":"6072c51dc97bb5778fa9435d","study_id":"6197b3f67c2b5cd3b6d9596a","session_id":"6197b9e86f054380b61d078d","condition":"full-information","relevant_dimensions":["antennae","wings"],"bee_group":{"antennae":"B","wings":"2","pattern":"X","legs":"X"},"action":"avoid","summary":"good-avoid","bonus":0.6800000000000003},{"rt":952.1999999880791,"stimulus":"\n                    <p><b>Action: <em>avoid</em></b></p>\n                    <p>This is the bee that you just saw.</p>\n                    <img src=\"bees-with-color/bee-B2SF.svg\" width=\"200\">\n                    <p><span class=\"greenText\">Good choice!</span>  This bee would have stung you.<br>Your bonus pay is unchanged, and remains at $0.56.</p>\n            ","response":0,"trial_type":"html-button-response","trial_index":22,"time_elapsed":213442,"internal_node_id":"0.0-4.0-1.7","subject_id":"6072c51dc97bb5778fa9435d","study_id":"6197b3f67c2b5cd3b6d9596a","session_id":"6197b9e86f054380b61d078d","condition":"full-information","relevant_dimensions":["antennae","wings"],"bee_group":{"antennae":"B","wings":"2","pattern":"X","legs":"X"},"bonus":0.6800000000000003},{"rt":909,"stimulus":"bees-with-color/bee-B2DF.svg","response":1,"trial_type":"image-button-response","trial_index":23,"time_elapsed":214352,"internal_node_id":"0.0-4.0-0.8","subject_id":"6072c51dc97bb5778fa9435d","study_id":"6197b3f67c2b5cd3b6d9596a","session_id":"6197b9e86f054380b61d078d","condition":"full-information","relevant_dimensions":["antennae","wings"],"bee_group":{"antennae":"B","wings":"2","pattern":"X","legs":"X"},"action":"avoid","summary":"good-avoid","bonus":0.6800000000000003},{"rt":546.8999999761581,"stimulus":"\n                    <p><b>Action: <em>avoid</em></b></p>\n                    <p>This is the bee that you just saw.</p>\n                    <img src=\"bees-with-color/bee-B2DF.svg\" width=\"200\">\n                    <p><span class=\"greenText\">Good choice!</span>  This bee would have stung you.<br>Your bonus pay is unchanged, and remains at $0.56.</p>\n            ","response":0,"trial_type":"html-button-response","trial_index":24,"time_elapsed":214900,"internal_node_id":"0.0-4.0-1.8","subject_id":"6072c51dc97bb5778fa9435d","study_id":"6197b3f67c2b5cd3b6d9596a","session_id":"6197b9e86f054380b61d078d","condition":"full-information","relevant_dimensions":["antennae","wings"],"bee_group":{"antennae":"B","wings":"2","pattern":"X","legs":"X"},"bonus":0.6800000000000003},{"rt":668.1999999880791,"stimulus":"bees-with-color/bee-B2SM.svg","response":1,"trial_type":"image-button-response","trial_index":25,"time_elapsed":215569,"internal_node_id":"0.0-4.0-0.9","subject_id":"6072c51dc97bb5778fa9435d","study_id":"6197b3f67c2b5cd3b6d9596a","session_id":"6197b9e86f054380b61d078d","condition":"full-information","relevant_dimensions":["antennae","wings"],"bee_group":{"antennae":"B","wings":"2","pattern":"X","legs":"X"},"action":"avoid","summary":"good-avoid","bonus":0.6800000000000003},{"rt":544.8000000119209,"stimulus":"\n                    <p><b>Action: <em>avoid</em></b></p>\n                    <p>This is the bee that you just saw.</p>\n                    <img src=\"bees-with-color/bee-B2SM.svg\" width=\"200\">\n                    <p><span class=\"greenText\">Good choice!</span>  This bee would have stung you.<br>Your bonus pay is unchanged, and remains at $0.56.</p>\n            ","response":0,"trial_type":"html-button-response","trial_index":26,"time_elapsed":216115,"internal_node_id":"0.0-4.0-1.9","subject_id":"6072c51dc97bb5778fa9435d","study_id":"6197b3f67c2b5cd3b6d9596a","session_id":"6197b9e86f054380b61d078d","condition":"full-information","relevant_dimensions":["antennae","wings"],"bee_group":{"antennae":"B","wings":"2","pattern":"X","legs":"X"},"bonus":0.6800000000000003},{"rt":1040.0999999642372,"stimulus":"bees-with-color/bee-B1SM.svg","response":0,"trial_type":"image-button-response","trial_index":27,"time_elapsed":217156,"internal_node_id":"0.0-4.0-0.10","subject_id":"6072c51dc97bb5778fa9435d","study_id":"6197b3f67c2b5cd3b6d9596a","session_id":"6197b9e86f054380b61d078d","condition":"full-information","relevant_dimensions":["antennae","wings"],"bee_group":{"antennae":"B","wings":"2","pattern":"X","legs":"X"},"action":"harvest","summary":"good-harvest","bonus":0.6800000000000003},{"rt":636.0999999642372,"stimulus":"\n                    <p><b>Action: <em>harvest</em></b></p>\n                    <p>This is the bee that you just saw.</p>\n                    <img src=\"bees-with-color/bee-B1SM.svg\" width=\"200\">\n                    <p><span class=\"greenText\"><b>Successful harvest!</b></span><br>Your pay has increased by $0.02. Your bonus pay is now $0.58.</p>\n            ","response":0,"trial_type":"html-button-response","trial_index":28,"time_elapsed":217793,"internal_node_id":"0.0-4.0-1.10","subject_id":"6072c51dc97bb5778fa9435d","study_id":"6197b3f67c2b5cd3b6d9596a","session_id":"6197b9e86f054380b61d078d","condition":"full-information","relevant_dimensions":["antennae","wings"],"bee_group":{"antennae":"B","wings":"2","pattern":"X","legs":"X"},"bonus":0.6800000000000003},{"rt":1111.199999988079,"stimulus":"bees-with-color/bee-A1DM.svg","response":0,"trial_type":"image-button-response","trial_index":29,"time_elapsed":218905,"internal_node_id":"0.0-4.0-0.11","subject_id":"6072c51dc97bb5778fa9435d","study_id":"6197b3f67c2b5cd3b6d9596a","session_id":"6197b9e86f054380b61d078d","condition":"full-information","relevant_dimensions":["antennae","wings"],"bee_group":{"antennae":"B","wings":"2","pattern":"X","legs":"X"},"action":"harvest","summary":"good-harvest","bonus":0.6800000000000003},{"rt":526,"stimulus":"\n                    <p><b>Action: <em>harvest</em></b></p>\n                    <p>This is the bee that you just saw.</p>\n                    <img src=\"bees-with-color/bee-A1DM.svg\" width=\"200\">\n                    <p><span class=\"greenText\"><b>Successful harvest!</b></span><br>Your pay has increased by $0.02. Your bonus pay is now $0.60.</p>\n            ","response":0,"trial_type":"html-button-response","trial_index":30,"time_elapsed":219433,"internal_node_id":"0.0-4.0-1.11","subject_id":"6072c51dc97bb5778fa9435d","study_id":"6197b3f67c2b5cd3b6d9596a","session_id":"6197b9e86f054380b61d078d","condition":"full-information","relevant_dimensions":["antennae","wings"],"bee_group":{"antennae":"B","wings":"2","pattern":"X","legs":"X"},"bonus":0.6800000000000003},{"rt":848.3999999761581,"stimulus":"bees-with-color/bee-A1DF.svg","response":0,"trial_type":"image-button-response","trial_index":31,"time_elapsed":220283,"internal_node_id":"0.0-4.0-0.12","subject_id":"6072c51dc97bb5778fa9435d","study_id":"6197b3f67c2b5cd3b6d9596a","session_id":"6197b9e86f054380b61d078d","condition":"full-information","relevant_dimensions":["antennae","wings"],"bee_group":{"antennae":"B","wings":"2","pattern":"X","legs":"X"},"action":"harvest","summary":"good-harvest","bonus":0.6800000000000003},{"rt":492.19999998807907,"stimulus":"\n                    <p><b>Action: <em>harvest</em></b></p>\n                    <p>This is the bee that you just saw.</p>\n                    <img src=\"bees-with-color/bee-A1DF.svg\" width=\"200\">\n                    <p><span class=\"greenText\"><b>Successful harvest!</b></span><br>Your pay has increased by $0.02. Your bonus pay is now $0.62.</p>\n            ","response":0,"trial_type":"html-button-response","trial_index":32,"time_elapsed":220776,"internal_node_id":"0.0-4.0-1.12","subject_id":"6072c51dc97bb5778fa9435d","study_id":"6197b3f67c2b5cd3b6d9596a","session_id":"6197b9e86f054380b61d078d","condition":"full-information","relevant_dimensions":["antennae","wings"],"bee_group":{"antennae":"B","wings":"2","pattern":"X","legs":"X"},"bonus":0.6800000000000003},{"rt":1289.199999988079,"stimulus":"bees-with-color/bee-A2DM.svg","response":1,"trial_type":"image-button-response","trial_index":33,"time_elapsed":222066,"internal_node_id":"0.0-4.0-0.13","subject_id":"6072c51dc97bb5778fa9435d","study_id":"6197b3f67c2b5cd3b6d9596a","session_id":"6197b9e86f054380b61d078d","condition":"full-information","relevant_dimensions":["antennae","wings"],"bee_group":{"antennae":"B","wings":"2","pattern":"X","legs":"X"},"action":"avoid","summary":"bad-avoid","bonus":0.6800000000000003},{"rt":510.0999999642372,"stimulus":"\n                    <p><b>Action: <em>avoid</em></b></p>\n                    <p>This is the bee that you just saw.</p>\n                    <img src=\"bees-with-color/bee-A2DM.svg\" width=\"200\">\n                    <p><span class=\"redText\">Bad choice,</span> the bee was friendly.<br>Your bonus pay is unchanged, and remains at $0.62.</p>\n            ","response":0,"trial_type":"html-button-response","trial_index":34,"time_elapsed":222577,"internal_node_id":"0.0-4.0-1.13","subject_id":"6072c51dc97bb5778fa9435d","study_id":"6197b3f67c2b5cd3b6d9596a","session_id":"6197b9e86f054380b61d078d","condition":"full-information","relevant_dimensions":["antennae","wings"],"bee_group":{"antennae":"B","wings":"2","pattern":"X","legs":"X"},"bonus":0.6800000000000003},{"rt":1264.0999999642372,"stimulus":"bees-with-color/bee-A2SF.svg","response":1,"trial_type":"image-button-response","trial_index":35,"time_elapsed":223842,"internal_node_id":"0.0-4.0-0.14","subject_id":"6072c51dc97bb5778fa9435d","study_id":"6197b3f67c2b5cd3b6d9596a","session_id":"6197b9e86f054380b61d078d","condition":"full-information","relevant_dimensions":["antennae","wings"],"bee_group":{"antennae":"B","wings":"2","pattern":"X","legs":"X"},"action":"avoid","summary":"bad-avoid","bonus":0.6800000000000003},{"rt":2422.199999988079,"stimulus":"\n                    <p><b>Action: <em>avoid</em></b></p>\n                    <p>This is the bee that you just saw.</p>\n                    <img src=\"bees-with-color/bee-A2SF.svg\" width=\"200\">\n                    <p><span class=\"redText\">Bad choice,</span> the bee was friendly.<br>Your bonus pay is unchanged, and remains at $0.62.</p>\n            ","response":0,"trial_type":"html-button-response","trial_index":36,"time_elapsed":226265,"internal_node_id":"0.0-4.0-1.14","subject_id":"6072c51dc97bb5778fa9435d","study_id":"6197b3f67c2b5cd3b6d9596a","session_id":"6197b9e86f054380b61d078d","condition":"full-information","relevant_dimensions":["antennae","wings"],"bee_group":{"antennae":"B","wings":"2","pattern":"X","legs":"X"},"bonus":0.6800000000000003},{"rt":1380.8999999761581,"stimulus":"bees-with-color/bee-A2DF.svg","response":1,"trial_type":"image-button-response","trial_index":37,"time_elapsed":227647,"internal_node_id":"0.0-4.0-0.15","subject_id":"6072c51dc97bb5778fa9435d","study_id":"6197b3f67c2b5cd3b6d9596a","session_id":"6197b9e86f054380b61d078d","condition":"full-information","relevant_dimensions":["antennae","wings"],"bee_group":{"antennae":"B","wings":"2","pattern":"X","legs":"X"},"action":"avoid","summary":"bad-avoid","bonus":0.6800000000000003},{"rt":843.1000000238419,"stimulus":"\n                    <p><b>Action: <em>avoid</em></b></p>\n                    <p>This is the bee that you just saw.</p>\n                    <img src=\"bees-with-color/bee-A2DF.svg\" width=\"200\">\n                    <p><span class=\"redText\">Bad choice,</span> the bee was friendly.<br>Your bonus pay is unchanged, and remains at $0.62.</p>\n            ","response":0,"trial_type":"html-button-response","trial_index":38,"time_elapsed":228491,"internal_node_id":"0.0-4.0-1.15","subject_id":"6072c51dc97bb5778fa9435d","study_id":"6197b3f67c2b5cd3b6d9596a","session_id":"6197b9e86f054380b61d078d","condition":"full-information","relevant_dimensions":["antennae","wings"],"bee_group":{"antennae":"B","wings":"2","pattern":"X","legs":"X"},"bonus":0.6800000000000003},{"rt":734.2999999523163,"stimulus":"bees-with-color/bee-A2SM.svg","response":1,"trial_type":"image-button-response","trial_index":39,"time_elapsed":229226,"internal_node_id":"0.0-4.0-0.16","subject_id":"6072c51dc97bb5778fa9435d","study_id":"6197b3f67c2b5cd3b6d9596a","session_id":"6197b9e86f054380b61d078d","condition":"full-information","relevant_dimensions":["antennae","wings"],"bee_group":{"antennae":"B","wings":"2","pattern":"X","legs":"X"},"action":"avoid","summary":"bad-avoid","bonus":0.6800000000000003},{"rt":649.1999999880791,"stimulus":"\n                    <p><b>Action: <em>avoid</em></b></p>\n                    <p>This is the bee that you just saw.</p>\n                    <img src=\"bees-with-color/bee-A2SM.svg\" width=\"200\">\n                    <p><span class=\"redText\">Bad choice,</span> the bee was friendly.<br>Your bonus pay is unchanged, and remains at $0.62.</p>\n            ","response":0,"trial_type":"html-button-response","trial_index":40,"time_elapsed":229876,"internal_node_id":"0.0-4.0-1.16","subject_id":"6072c51dc97bb5778fa9435d","study_id":"6197b3f67c2b5cd3b6d9596a","session_id":"6197b9e86f054380b61d078d","condition":"full-information","relevant_dimensions":["antennae","wings"],"bee_group":{"antennae":"B","wings":"2","pattern":"X","legs":"X"},"bonus":0.6800000000000003},{"rt":883.1000000238419,"stimulus":"bees-with-color/bee-B1SM.svg","response":0,"trial_type":"image-button-response","trial_index":41,"time_elapsed":230760,"internal_node_id":"0.0-4.0-0.17","subject_id":"6072c51dc97bb5778fa9435d","study_id":"6197b3f67c2b5cd3b6d9596a","session_id":"6197b9e86f054380b61d078d","condition":"full-information","relevant_dimensions":["antennae","wings"],"bee_group":{"antennae":"B","wings":"2","pattern":"X","legs":"X"},"action":"harvest","summary":"good-harvest","bonus":0.6800000000000003},{"rt":576.3000000119209,"stimulus":"\n                    <p><b>Action: <em>harvest</em></b></p>\n                    <p>This is the bee that you just saw.</p>\n                    <img src=\"bees-with-color/bee-B1SM.svg\" width=\"200\">\n                    <p><span class=\"greenText\"><b>Successful harvest!</b></span><br>Your pay has increased by $0.02. Your bonus pay is now $0.64.</p>\n            ","response":0,"trial_type":"html-button-response","trial_index":42,"time_elapsed":231337,"internal_node_id":"0.0-4.0-1.17","subject_id":"6072c51dc97bb5778fa9435d","study_id":"6197b3f67c2b5cd3b6d9596a","session_id":"6197b9e86f054380b61d078d","condition":"full-information","relevant_dimensions":["antennae","wings"],"bee_group":{"antennae":"B","wings":"2","pattern":"X","legs":"X"},"bonus":0.6800000000000003},{"rt":937,"stimulus":"bees-with-color/bee-A2DF.svg","response":1,"trial_type":"image-button-response","trial_index":43,"time_elapsed":232275,"internal_node_id":"0.0-4.0-0.18","subject_id":"6072c51dc97bb5778fa9435d","study_id":"6197b3f67c2b5cd3b6d9596a","session_id":"6197b9e86f054380b61d078d","condition":"full-information","relevant_dimensions":["antennae","wings"],"bee_group":{"antennae":"B","wings":"2","pattern":"X","legs":"X"},"action":"avoid","summary":"bad-avoid","bonus":0.6800000000000003},{"rt":506.4000000357628,"stimulus":"\n                    <p><b>Action: <em>avoid</em></b></p>\n                    <p>This is the bee that you just saw.</p>\n                    <img src=\"bees-with-color/bee-A2DF.svg\" width=\"200\">\n                    <p><span class=\"redText\">Bad choice,</span> the bee was friendly.<br>Your bonus pay is unchanged, and remains at $0.64.</p>\n            ","response":0,"trial_type":"html-button-response","trial_index":44,"time_elapsed":232782,"internal_node_id":"0.0-4.0-1.18","subject_id":"6072c51dc97bb5778fa9435d","study_id":"6197b3f67c2b5cd3b6d9596a","session_id":"6197b9e86f054380b61d078d","condition":"full-information","relevant_dimensions":["antennae","wings"],"bee_group":{"antennae":"B","wings":"2","pattern":"X","legs":"X"},"bonus":0.6800000000000003},{"rt":1191.300000011921,"stimulus":"bees-with-color/bee-B2DM.svg","response":1,"trial_type":"image-button-response","trial_index":45,"time_elapsed":233975,"internal_node_id":"0.0-4.0-0.19","subject_id":"6072c51dc97bb5778fa9435d","study_id":"6197b3f67c2b5cd3b6d9596a","session_id":"6197b9e86f054380b61d078d","condition":"full-information","relevant_dimensions":["antennae","wings"],"bee_group":{"antennae":"B","wings":"2","pattern":"X","legs":"X"},"action":"avoid","summary":"good-avoid","bonus":0.6800000000000003},{"rt":826.1999999880791,"stimulus":"\n                    <p><b>Action: <em>avoid</em></b></p>\n                    <p>This is the bee that you just saw.</p>\n                    <img src=\"bees-with-color/bee-B2DM.svg\" width=\"200\">\n                    <p><span class=\"greenText\">Good choice!</span>  This bee would have stung you.<br>Your bonus pay is unchanged, and remains at $0.64.</p>\n            ","response":0,"trial_type":"html-button-response","trial_index":46,"time_elapsed":234803,"internal_node_id":"0.0-4.0-1.19","subject_id":"6072c51dc97bb5778fa9435d","study_id":"6197b3f67c2b5cd3b6d9596a","session_id":"6197b9e86f054380b61d078d","condition":"full-information","relevant_dimensions":["antennae","wings"],"bee_group":{"antennae":"B","wings":"2","pattern":"X","legs":"X"},"bonus":0.6800000000000003},{"rt":1501.0999999642372,"stimulus":"bees-with-color/bee-B1DF.svg","response":0,"trial_type":"image-button-response","trial_index":47,"time_elapsed":236305,"internal_node_id":"0.0-4.0-0.20","subject_id":"6072c51dc97bb5778fa9435d","study_id":"6197b3f67c2b5cd3b6d9596a","session_id":"6197b9e86f054380b61d078d","condition":"full-information","relevant_dimensions":["antennae","wings"],"bee_group":{"antennae":"B","wings":"2","pattern":"X","legs":"X"},"action":"harvest","summary":"good-harvest","bonus":0.6800000000000003},{"rt":654.1000000238419,"stimulus":"\n                    <p><b>Action: <em>harvest</em></b></p>\n                    <p>This is the bee that you just saw.</p>\n                    <img src=\"bees-with-color/bee-B1DF.svg\" width=\"200\">\n                    <p><span class=\"greenText\"><b>Successful harvest!</b></span><br>Your pay has increased by $0.02. Your bonus pay is now $0.66.</p>\n            ","response":0,"trial_type":"html-button-response","trial_index":48,"time_elapsed":236960,"internal_node_id":"0.0-4.0-1.20","subject_id":"6072c51dc97bb5778fa9435d","study_id":"6197b3f67c2b5cd3b6d9596a","session_id":"6197b9e86f054380b61d078d","condition":"full-information","relevant_dimensions":["antennae","wings"],"bee_group":{"antennae":"B","wings":"2","pattern":"X","legs":"X"},"bonus":0.6800000000000003},{"rt":841.1000000238419,"stimulus":"bees-with-color/bee-A2SF.svg","response":1,"trial_type":"image-button-response","trial_index":49,"time_elapsed":237802,"internal_node_id":"0.0-4.0-0.21","subject_id":"6072c51dc97bb5778fa9435d","study_id":"6197b3f67c2b5cd3b6d9596a","session_id":"6197b9e86f054380b61d078d","condition":"full-information","relevant_dimensions":["antennae","wings"],"bee_group":{"antennae":"B","wings":"2","pattern":"X","legs":"X"},"action":"avoid","summary":"bad-avoid","bonus":0.6800000000000003},{"rt":527,"stimulus":"\n                    <p><b>Action: <em>avoid</em></b></p>\n                    <p>This is the bee that you just saw.</p>\n                    <img src=\"bees-with-color/bee-A2SF.svg\" width=\"200\">\n                    <p><span class=\"redText\">Bad choice,</span> the bee was friendly.<br>Your bonus pay is unchanged, and remains at $0.66.</p>\n            ","response":0,"trial_type":"html-button-response","trial_index":50,"time_elapsed":238330,"internal_node_id":"0.0-4.0-1.21","subject_id":"6072c51dc97bb5778fa9435d","study_id":"6197b3f67c2b5cd3b6d9596a","session_id":"6197b9e86f054380b61d078d","condition":"full-information","relevant_dimensions":["antennae","wings"],"bee_group":{"antennae":"B","wings":"2","pattern":"X","legs":"X"},"bonus":0.6800000000000003},{"rt":3154.399999976158,"stimulus":"bees-with-color/bee-B1SF.svg","response":0,"trial_type":"image-button-response","trial_index":51,"time_elapsed":241485,"internal_node_id":"0.0-4.0-0.22","subject_id":"6072c51dc97bb5778fa9435d","study_id":"6197b3f67c2b5cd3b6d9596a","session_id":"6197b9e86f054380b61d078d","condition":"full-information","relevant_dimensions":["antennae","wings"],"bee_group":{"antennae":"B","wings":"2","pattern":"X","legs":"X"},"action":"harvest","summary":"good-harvest","bonus":0.6800000000000003},{"rt":1785.199999988079,"stimulus":"\n                    <p><b>Action: <em>harvest</em></b></p>\n                    <p>This is the bee that you just saw.</p>\n                    <img src=\"bees-with-color/bee-B1SF.svg\" width=\"200\">\n                    <p><span class=\"greenText\"><b>Successful harvest!</b></span><br>Your pay has increased by $0.02. Your bonus pay is now $0.68.</p>\n            ","response":0,"trial_type":"html-button-response","trial_index":52,"time_elapsed":243271,"internal_node_id":"0.0-4.0-1.22","subject_id":"6072c51dc97bb5778fa9435d","study_id":"6197b3f67c2b5cd3b6d9596a","session_id":"6197b9e86f054380b61d078d","condition":"full-information","relevant_dimensions":["antennae","wings"],"bee_group":{"antennae":"B","wings":"2","pattern":"X","legs":"X"},"bonus":0.6800000000000003},{"rt":2159.800000011921,"stimulus":"bees-with-color/bee-B2SF.svg","response":0,"trial_type":"image-button-response","trial_index":53,"time_elapsed":245432,"internal_node_id":"0.0-4.0-0.23","subject_id":"6072c51dc97bb5778fa9435d","study_id":"6197b3f67c2b5cd3b6d9596a","session_id":"6197b9e86f054380b61d078d","condition":"full-information","relevant_dimensions":["antennae","wings"],"bee_group":{"antennae":"B","wings":"2","pattern":"X","legs":"X"},"action":"harvest","summary":"bad-harvest","bonus":0.6800000000000003},{"rt":1846.199999988079,"stimulus":"\n                    <p><b>Action: <em>harvest</em></b></p>\n                    <p>This is the bee that you just saw.</p>\n                    <img src=\"bees-with-color/bee-B2SF.svg\" width=\"200\">\n                    <p><span class=\"redText\">Bad choice, the bee was angry.</span><br><b>You have been stung!</b><br>Your pay has been decreased by $0.10. Your bonus pay is now $0.58.</p>\n            ","response":0,"trial_type":"html-button-response","trial_index":54,"time_elapsed":247279,"internal_node_id":"0.0-4.0-1.23","subject_id":"6072c51dc97bb5778fa9435d","study_id":"6197b3f67c2b5cd3b6d9596a","session_id":"6197b9e86f054380b61d078d","condition":"full-information","relevant_dimensions":["antennae","wings"],"bee_group":{"antennae":"B","wings":"2","pattern":"X","legs":"X"},"bonus":0.6800000000000003},{"rt":2878,"stimulus":"bees-with-color/bee-B1DM.svg","response":0,"trial_type":"image-button-response","trial_index":55,"time_elapsed":250158,"internal_node_id":"0.0-4.0-0.24","subject_id":"6072c51dc97bb5778fa9435d","study_id":"6197b3f67c2b5cd3b6d9596a","session_id":"6197b9e86f054380b61d078d","condition":"full-information","relevant_dimensions":["antennae","wings"],"bee_group":{"antennae":"B","wings":"2","pattern":"X","legs":"X"},"action":"harvest","summary":"good-harvest","bonus":0.6800000000000003},{"rt":625.1999999880791,"stimulus":"\n                    <p><b>Action: <em>harvest</em></b></p>\n                    <p>This is the bee that you just saw.</p>\n                    <img src=\"bees-with-color/bee-B1DM.svg\" width=\"200\">\n                    <p><span class=\"greenText\"><b>Successful harvest!</b></span><br>Your pay has increased by $0.02. Your bonus pay is now $0.60.</p>\n            ","response":0,"trial_type":"html-button-response","trial_index":56,"time_elapsed":250784,"internal_node_id":"0.0-4.0-1.24","subject_id":"6072c51dc97bb5778fa9435d","study_id":"6197b3f67c2b5cd3b6d9596a","session_id":"6197b9e86f054380b61d078d","condition":"full-information","relevant_dimensions":["antennae","wings"],"bee_group":{"antennae":"B","wings":"2","pattern":"X","legs":"X"},"bonus":0.6800000000000003},{"rt":2283.899999976158,"stimulus":"bees-with-color/bee-B2SM.svg","response":1,"trial_type":"image-button-response","trial_index":57,"time_elapsed":253069,"internal_node_id":"0.0-4.0-0.25","subject_id":"6072c51dc97bb5778fa9435d","study_id":"6197b3f67c2b5cd3b6d9596a","session_id":"6197b9e86f054380b61d078d","condition":"full-information","relevant_dimensions":["antennae","wings"],"bee_group":{"antennae":"B","wings":"2","pattern":"X","legs":"X"},"action":"avoid","summary":"good-avoid","bonus":0.6800000000000003},{"rt":680.9000000357628,"stimulus":"\n                    <p><b>Action: <em>avoid</em></b></p>\n                    <p>This is the bee that you just saw.</p>\n                    <img src=\"bees-with-color/bee-B2SM.svg\" width=\"200\">\n                    <p><span class=\"greenText\">Good choice!</span>  This bee would have stung you.<br>Your bonus pay is unchanged, and remains at $0.60.</p>\n            ","response":0,"trial_type":"html-button-response","trial_index":58,"time_elapsed":253751,"internal_node_id":"0.0-4.0-1.25","subject_id":"6072c51dc97bb5778fa9435d","study_id":"6197b3f67c2b5cd3b6d9596a","session_id":"6197b9e86f054380b61d078d","condition":"full-information","relevant_dimensions":["antennae","wings"],"bee_group":{"antennae":"B","wings":"2","pattern":"X","legs":"X"},"bonus":0.6800000000000003},{"rt":1322.300000011921,"stimulus":"bees-with-color/bee-B2DF.svg","response":1,"trial_type":"image-button-response","trial_index":59,"time_elapsed":255074,"internal_node_id":"0.0-4.0-0.26","subject_id":"6072c51dc97bb5778fa9435d","study_id":"6197b3f67c2b5cd3b6d9596a","session_id":"6197b9e86f054380b61d078d","condition":"full-information","relevant_dimensions":["antennae","wings"],"bee_group":{"antennae":"B","wings":"2","pattern":"X","legs":"X"},"action":"avoid","summary":"good-avoid","bonus":0.6800000000000003},{"rt":702.6999999880791,"stimulus":"\n                    <p><b>Action: <em>avoid</em></b></p>\n                    <p>This is the bee that you just saw.</p>\n                    <img src=\"bees-with-color/bee-B2DF.svg\" width=\"200\">\n                    <p><span class=\"greenText\">Good choice!</span>  This bee would have stung you.<br>Your bonus pay is unchanged, and remains at $0.60.</p>\n            ","response":0,"trial_type":"html-button-response","trial_index":60,"time_elapsed":255778,"internal_node_id":"0.0-4.0-1.26","subject_id":"6072c51dc97bb5778fa9435d","study_id":"6197b3f67c2b5cd3b6d9596a","session_id":"6197b9e86f054380b61d078d","condition":"full-information","relevant_dimensions":["antennae","wings"],"bee_group":{"antennae":"B","wings":"2","pattern":"X","legs":"X"},"bonus":0.6800000000000003},{"rt":2272.100000023842,"stimulus":"bees-with-color/bee-A1SM.svg","response":0,"trial_type":"image-button-response","trial_index":61,"time_elapsed":258051,"internal_node_id":"0.0-4.0-0.27","subject_id":"6072c51dc97bb5778fa9435d","study_id":"6197b3f67c2b5cd3b6d9596a","session_id":"6197b9e86f054380b61d078d","condition":"full-information","relevant_dimensions":["antennae","wings"],"bee_group":{"antennae":"B","wings":"2","pattern":"X","legs":"X"},"action":"harvest","summary":"good-harvest","bonus":0.6800000000000003},{"rt":746,"stimulus":"\n                    <p><b>Action: <em>harvest</em></b></p>\n                    <p>This is the bee that you just saw.</p>\n                    <img src=\"bees-with-color/bee-A1SM.svg\" width=\"200\">\n                    <p><span class=\"greenText\"><b>Successful harvest!</b></span><br>Your pay has increased by $0.02. Your bonus pay is now $0.62.</p>\n            ","response":0,"trial_type":"html-button-response","trial_index":62,"time_elapsed":258798,"internal_node_id":"0.0-4.0-1.27","subject_id":"6072c51dc97bb5778fa9435d","study_id":"6197b3f67c2b5cd3b6d9596a","session_id":"6197b9e86f054380b61d078d","condition":"full-information","relevant_dimensions":["antennae","wings"],"bee_group":{"antennae":"B","wings":"2","pattern":"X","legs":"X"},"bonus":0.6800000000000003},{"rt":1797,"stimulus":"bees-with-color/bee-A1DF.svg","response":1,"trial_type":"image-button-response","trial_index":63,"time_elapsed":260596,"internal_node_id":"0.0-4.0-0.28","subject_id":"6072c51dc97bb5778fa9435d","study_id":"6197b3f67c2b5cd3b6d9596a","session_id":"6197b9e86f054380b61d078d","condition":"full-information","relevant_dimensions":["antennae","wings"],"bee_group":{"antennae":"B","wings":"2","pattern":"X","legs":"X"},"action":"avoid","summary":"bad-avoid","bonus":0.6800000000000003},{"rt":764.1000000238419,"stimulus":"\n                    <p><b>Action: <em>avoid</em></b></p>\n                    <p>This is the bee that you just saw.</p>\n                    <img src=\"bees-with-color/bee-A1DF.svg\" width=\"200\">\n                    <p><span class=\"redText\">Bad choice,</span> the bee was friendly.<br>Your bonus pay is unchanged, and remains at $0.62.</p>\n            ","response":0,"trial_type":"html-button-response","trial_index":64,"time_elapsed":261361,"internal_node_id":"0.0-4.0-1.28","subject_id":"6072c51dc97bb5778fa9435d","study_id":"6197b3f67c2b5cd3b6d9596a","session_id":"6197b9e86f054380b61d078d","condition":"full-information","relevant_dimensions":["antennae","wings"],"bee_group":{"antennae":"B","wings":"2","pattern":"X","legs":"X"},"bonus":0.6800000000000003},{"rt":1791.7999999523163,"stimulus":"bees-with-color/bee-A1SF.svg","response":1,"trial_type":"image-button-response","trial_index":65,"time_elapsed":263154,"internal_node_id":"0.0-4.0-0.29","subject_id":"6072c51dc97bb5778fa9435d","study_id":"6197b3f67c2b5cd3b6d9596a","session_id":"6197b9e86f054380b61d078d","condition":"full-information","relevant_dimensions":["antennae","wings"],"bee_group":{"antennae":"B","wings":"2","pattern":"X","legs":"X"},"action":"avoid","summary":"bad-avoid","bonus":0.6800000000000003},{"rt":612.5,"stimulus":"\n                    <p><b>Action: <em>avoid</em></b></p>\n                    <p>This is the bee that you just saw.</p>\n                    <img src=\"bees-with-color/bee-A1SF.svg\" width=\"200\">\n                    <p><span class=\"redText\">Bad choice,</span> the bee was friendly.<br>Your bonus pay is unchanged, and remains at $0.62.</p>\n            ","response":0,"trial_type":"html-button-response","trial_index":66,"time_elapsed":263767,"internal_node_id":"0.0-4.0-1.29","subject_id":"6072c51dc97bb5778fa9435d","study_id":"6197b3f67c2b5cd3b6d9596a","session_id":"6197b9e86f054380b61d078d","condition":"full-information","relevant_dimensions":["antennae","wings"],"bee_group":{"antennae":"B","wings":"2","pattern":"X","legs":"X"},"bonus":0.6800000000000003},{"rt":1960.7999999523163,"stimulus":"bees-with-color/bee-A1DM.svg","response":1,"trial_type":"image-button-response","trial_index":67,"time_elapsed":265729,"internal_node_id":"0.0-4.0-0.30","subject_id":"6072c51dc97bb5778fa9435d","study_id":"6197b3f67c2b5cd3b6d9596a","session_id":"6197b9e86f054380b61d078d","condition":"full-information","relevant_dimensions":["antennae","wings"],"bee_group":{"antennae":"B","wings":"2","pattern":"X","legs":"X"},"action":"avoid","summary":"bad-avoid","bonus":0.6800000000000003},{"rt":594.0999999642372,"stimulus":"\n                    <p><b>Action: <em>avoid</em></b></p>\n                    <p>This is the bee that you just saw.</p>\n                    <img src=\"bees-with-color/bee-A1DM.svg\" width=\"200\">\n                    <p><span class=\"redText\">Bad choice,</span> the bee was friendly.<br>Your bonus pay is unchanged, and remains at $0.62.</p>\n            ","response":0,"trial_type":"html-button-response","trial_index":68,"time_elapsed":266324,"internal_node_id":"0.0-4.0-1.30","subject_id":"6072c51dc97bb5778fa9435d","study_id":"6197b3f67c2b5cd3b6d9596a","session_id":"6197b9e86f054380b61d078d","condition":"full-information","relevant_dimensions":["antennae","wings"],"bee_group":{"antennae":"B","wings":"2","pattern":"X","legs":"X"},"bonus":0.6800000000000003},{"rt":837,"stimulus":"bees-with-color/bee-A2DM.svg","response":1,"trial_type":"image-button-response","trial_index":69,"time_elapsed":267162,"internal_node_id":"0.0-4.0-0.31","subject_id":"6072c51dc97bb5778fa9435d","study_id":"6197b3f67c2b5cd3b6d9596a","session_id":"6197b9e86f054380b61d078d","condition":"full-information","relevant_dimensions":["antennae","wings"],"bee_group":{"antennae":"B","wings":"2","pattern":"X","legs":"X"},"action":"avoid","summary":"bad-avoid","bonus":0.6800000000000003},{"rt":642,"stimulus":"\n                    <p><b>Action: <em>avoid</em></b></p>\n                    <p>This is the bee that you just saw.</p>\n                    <img src=\"bees-with-color/bee-A2DM.svg\" width=\"200\">\n                    <p><span class=\"redText\">Bad choice,</span> the bee was friendly.<br>Your bonus pay is unchanged, and remains at $0.62.</p>\n            ","response":0,"trial_type":"html-button-response","trial_index":70,"time_elapsed":267805,"internal_node_id":"0.0-4.0-1.31","subject_id":"6072c51dc97bb5778fa9435d","study_id":"6197b3f67c2b5cd3b6d9596a","session_id":"6197b9e86f054380b61d078d","condition":"full-information","relevant_dimensions":["antennae","wings"],"bee_group":{"antennae":"B","wings":"2","pattern":"X","legs":"X"},"bonus":0.6800000000000003},{"rt":903.1000000238419,"stimulus":"bees-with-color/bee-A2DF.svg","response":1,"trial_type":"image-button-response","trial_index":71,"time_elapsed":268709,"internal_node_id":"0.0-4.0-0.32","subject_id":"6072c51dc97bb5778fa9435d","study_id":"6197b3f67c2b5cd3b6d9596a","session_id":"6197b9e86f054380b61d078d","condition":"full-information","relevant_dimensions":["antennae","wings"],"bee_group":{"antennae":"B","wings":"2","pattern":"X","legs":"X"},"action":"avoid","summary":"bad-avoid","bonus":0.6800000000000003},{"rt":565,"stimulus":"\n                    <p><b>Action: <em>avoid</em></b></p>\n                    <p>This is the bee that you just saw.</p>\n                    <img src=\"bees-with-color/bee-A2DF.svg\" width=\"200\">\n                    <p><span class=\"redText\">Bad choice,</span> the bee was friendly.<br>Your bonus pay is unchanged, and remains at $0.62.</p>\n            ","response":0,"trial_type":"html-button-response","trial_index":72,"time_elapsed":269275,"internal_node_id":"0.0-4.0-1.32","subject_id":"6072c51dc97bb5778fa9435d","study_id":"6197b3f67c2b5cd3b6d9596a","session_id":"6197b9e86f054380b61d078d","condition":"full-information","relevant_dimensions":["antennae","wings"],"bee_group":{"antennae":"B","wings":"2","pattern":"X","legs":"X"},"bonus":0.6800000000000003},{"rt":1814.5,"stimulus":"bees-with-color/bee-B2SM.svg","response":1,"trial_type":"image-button-response","trial_index":73,"time_elapsed":271090,"internal_node_id":"0.0-4.0-0.33","subject_id":"6072c51dc97bb5778fa9435d","study_id":"6197b3f67c2b5cd3b6d9596a","session_id":"6197b9e86f054380b61d078d","condition":"full-information","relevant_dimensions":["antennae","wings"],"bee_group":{"antennae":"B","wings":"2","pattern":"X","legs":"X"},"action":"avoid","summary":"good-avoid","bonus":0.6800000000000003},{"rt":511.5999999642372,"stimulus":"\n                    <p><b>Action: <em>avoid</em></b></p>\n                    <p>This is the bee that you just saw.</p>\n                    <img src=\"bees-with-color/bee-B2SM.svg\" width=\"200\">\n                    <p><span class=\"greenText\">Good choice!</span>  This bee would have stung you.<br>Your bonus pay is unchanged, and remains at $0.62.</p>\n            ","response":0,"trial_type":"html-button-response","trial_index":74,"time_elapsed":271603,"internal_node_id":"0.0-4.0-1.33","subject_id":"6072c51dc97bb5778fa9435d","study_id":"6197b3f67c2b5cd3b6d9596a","session_id":"6197b9e86f054380b61d078d","condition":"full-information","relevant_dimensions":["antennae","wings"],"bee_group":{"antennae":"B","wings":"2","pattern":"X","legs":"X"},"bonus":0.6800000000000003},{"rt":1259.0999999642372,"stimulus":"bees-with-color/bee-B1DM.svg","response":1,"trial_type":"image-button-response","trial_index":75,"time_elapsed":272863,"internal_node_id":"0.0-4.0-0.34","subject_id":"6072c51dc97bb5778fa9435d","study_id":"6197b3f67c2b5cd3b6d9596a","session_id":"6197b9e86f054380b61d078d","condition":"full-information","relevant_dimensions":["antennae","wings"],"bee_group":{"antennae":"B","wings":"2","pattern":"X","legs":"X"},"action":"avoid","summary":"bad-avoid","bonus":0.6800000000000003},{"rt":433.60000002384186,"stimulus":"\n                    <p><b>Action: <em>avoid</em></b></p>\n                    <p>This is the bee that you just saw.</p>\n                    <img src=\"bees-with-color/bee-B1DM.svg\" width=\"200\">\n                    <p><span class=\"redText\">Bad choice,</span> the bee was friendly.<br>Your bonus pay is unchanged, and remains at $0.62.</p>\n            ","response":0,"trial_type":"html-button-response","trial_index":76,"time_elapsed":273298,"internal_node_id":"0.0-4.0-1.34","subject_id":"6072c51dc97bb5778fa9435d","study_id":"6197b3f67c2b5cd3b6d9596a","session_id":"6197b9e86f054380b61d078d","condition":"full-information","relevant_dimensions":["antennae","wings"],"bee_group":{"antennae":"B","wings":"2","pattern":"X","legs":"X"},"bonus":0.6800000000000003},{"rt":1003.1999999880791,"stimulus":"bees-with-color/bee-B1DF.svg","response":0,"trial_type":"image-button-response","trial_index":77,"time_elapsed":274302,"internal_node_id":"0.0-4.0-0.35","subject_id":"6072c51dc97bb5778fa9435d","study_id":"6197b3f67c2b5cd3b6d9596a","session_id":"6197b9e86f054380b61d078d","condition":"full-information","relevant_dimensions":["antennae","wings"],"bee_group":{"antennae":"B","wings":"2","pattern":"X","legs":"X"},"action":"harvest","summary":"good-harvest","bonus":0.6800000000000003},{"rt":509.19999998807907,"stimulus":"\n                    <p><b>Action: <em>harvest</em></b></p>\n                    <p>This is the bee that you just saw.</p>\n                    <img src=\"bees-with-color/bee-B1DF.svg\" width=\"200\">\n                    <p><span class=\"greenText\"><b>Successful harvest!</b></span><br>Your pay has increased by $0.02. Your bonus pay is now $0.64.</p>\n            ","response":0,"trial_type":"html-button-response","trial_index":78,"time_elapsed":274812,"internal_node_id":"0.0-4.0-1.35","subject_id":"6072c51dc97bb5778fa9435d","study_id":"6197b3f67c2b5cd3b6d9596a","session_id":"6197b9e86f054380b61d078d","condition":"full-information","relevant_dimensions":["antennae","wings"],"bee_group":{"antennae":"B","wings":"2","pattern":"X","legs":"X"},"bonus":0.6800000000000003},{"rt":1212.1000000238419,"stimulus":"bees-with-color/bee-B1SM.svg","response":1,"trial_type":"image-button-response","trial_index":79,"time_elapsed":276025,"internal_node_id":"0.0-4.0-0.36","subject_id":"6072c51dc97bb5778fa9435d","study_id":"6197b3f67c2b5cd3b6d9596a","session_id":"6197b9e86f054380b61d078d","condition":"full-information","relevant_dimensions":["antennae","wings"],"bee_group":{"antennae":"B","wings":"2","pattern":"X","legs":"X"},"action":"avoid","summary":"bad-avoid","bonus":0.6800000000000003},{"rt":559.1999999880791,"stimulus":"\n                    <p><b>Action: <em>avoid</em></b></p>\n                    <p>This is the bee that you just saw.</p>\n                    <img src=\"bees-with-color/bee-B1SM.svg\" width=\"200\">\n                    <p><span class=\"redText\">Bad choice,</span> the bee was friendly.<br>Your bonus pay is unchanged, and remains at $0.64.</p>\n            ","response":0,"trial_type":"html-button-response","trial_index":80,"time_elapsed":276585,"internal_node_id":"0.0-4.0-1.36","subject_id":"6072c51dc97bb5778fa9435d","study_id":"6197b3f67c2b5cd3b6d9596a","session_id":"6197b9e86f054380b61d078d","condition":"full-information","relevant_dimensions":["antennae","wings"],"bee_group":{"antennae":"B","wings":"2","pattern":"X","legs":"X"},"bonus":0.6800000000000003},{"rt":1693.199999988079,"stimulus":"bees-with-color/bee-A1DF.svg","response":1,"trial_type":"image-button-response","trial_index":81,"time_elapsed":278279,"internal_node_id":"0.0-4.0-0.37","subject_id":"6072c51dc97bb5778fa9435d","study_id":"6197b3f67c2b5cd3b6d9596a","session_id":"6197b9e86f054380b61d078d","condition":"full-information","relevant_dimensions":["antennae","wings"],"bee_group":{"antennae":"B","wings":"2","pattern":"X","legs":"X"},"action":"avoid","summary":"bad-avoid","bonus":0.6800000000000003},{"rt":750.0999999642372,"stimulus":"\n                    <p><b>Action: <em>avoid</em></b></p>\n                    <p>This is the bee that you just saw.</p>\n                    <img src=\"bees-with-color/bee-A1DF.svg\" width=\"200\">\n                    <p><span class=\"redText\">Bad choice,</span> the bee was friendly.<br>Your bonus pay is unchanged, and remains at $0.64.</p>\n            ","response":0,"trial_type":"html-button-response","trial_index":82,"time_elapsed":279030,"internal_node_id":"0.0-4.0-1.37","subject_id":"6072c51dc97bb5778fa9435d","study_id":"6197b3f67c2b5cd3b6d9596a","session_id":"6197b9e86f054380b61d078d","condition":"full-information","relevant_dimensions":["antennae","wings"],"bee_group":{"antennae":"B","wings":"2","pattern":"X","legs":"X"},"bonus":0.6800000000000003},{"rt":1120.699999988079,"stimulus":"bees-with-color/bee-B2SF.svg","response":1,"trial_type":"image-button-response","trial_index":83,"time_elapsed":280151,"internal_node_id":"0.0-4.0-0.38","subject_id":"6072c51dc97bb5778fa9435d","study_id":"6197b3f67c2b5cd3b6d9596a","session_id":"6197b9e86f054380b61d078d","condition":"full-information","relevant_dimensions":["antennae","wings"],"bee_group":{"antennae":"B","wings":"2","pattern":"X","legs":"X"},"action":"avoid","summary":"good-avoid","bonus":0.6800000000000003},{"rt":517.4000000357628,"stimulus":"\n                    <p><b>Action: <em>avoid</em></b></p>\n                    <p>This is the bee that you just saw.</p>\n                    <img src=\"bees-with-color/bee-B2SF.svg\" width=\"200\">\n                    <p><span class=\"greenText\">Good choice!</span>  This bee would have stung you.<br>Your bonus pay is unchanged, and remains at $0.64.</p>\n            ","response":0,"trial_type":"html-button-response","trial_index":84,"time_elapsed":280670,"internal_node_id":"0.0-4.0-1.38","subject_id":"6072c51dc97bb5778fa9435d","study_id":"6197b3f67c2b5cd3b6d9596a","session_id":"6197b9e86f054380b61d078d","condition":"full-information","relevant_dimensions":["antennae","wings"],"bee_group":{"antennae":"B","wings":"2","pattern":"X","legs":"X"},"bonus":0.6800000000000003},{"rt":1693.300000011921,"stimulus":"bees-with-color/bee-A1SF.svg","response":0,"trial_type":"image-button-response","trial_index":85,"time_elapsed":282364,"internal_node_id":"0.0-4.0-0.39","subject_id":"6072c51dc97bb5778fa9435d","study_id":"6197b3f67c2b5cd3b6d9596a","session_id":"6197b9e86f054380b61d078d","condition":"full-information","relevant_dimensions":["antennae","wings"],"bee_group":{"antennae":"B","wings":"2","pattern":"X","legs":"X"},"action":"harvest","summary":"good-harvest","bonus":0.6800000000000003},{"rt":1031,"stimulus":"\n                    <p><b>Action: <em>harvest</em></b></p>\n                    <p>This is the bee that you just saw.</p>\n                    <img src=\"bees-with-color/bee-A1SF.svg\" width=\"200\">\n                    <p><span class=\"greenText\"><b>Successful harvest!</b></span><br>Your pay has increased by $0.02. Your bonus pay is now $0.66.</p>\n            ","response":0,"trial_type":"html-button-response","trial_index":86,"time_elapsed":283396,"internal_node_id":"0.0-4.0-1.39","subject_id":"6072c51dc97bb5778fa9435d","study_id":"6197b3f67c2b5cd3b6d9596a","session_id":"6197b9e86f054380b61d078d","condition":"full-information","relevant_dimensions":["antennae","wings"],"bee_group":{"antennae":"B","wings":"2","pattern":"X","legs":"X"},"bonus":0.6800000000000003},{"rt":2968.400000035763,"stimulus":"bees-with-color/bee-A1DM.svg","response":1,"trial_type":"image-button-response","trial_index":87,"time_elapsed":286365,"internal_node_id":"0.0-4.0-0.40","subject_id":"6072c51dc97bb5778fa9435d","study_id":"6197b3f67c2b5cd3b6d9596a","session_id":"6197b9e86f054380b61d078d","condition":"full-information","relevant_dimensions":["antennae","wings"],"bee_group":{"antennae":"B","wings":"2","pattern":"X","legs":"X"},"action":"avoid","summary":"bad-avoid","bonus":0.6800000000000003},{"rt":682.5,"stimulus":"\n                    <p><b>Action: <em>avoid</em></b></p>\n                    <p>This is the bee that you just saw.</p>\n                    <img src=\"bees-with-color/bee-A1DM.svg\" width=\"200\">\n                    <p><span class=\"redText\">Bad choice,</span> the bee was friendly.<br>Your bonus pay is unchanged, and remains at $0.66.</p>\n            ","response":0,"trial_type":"html-button-response","trial_index":88,"time_elapsed":287049,"internal_node_id":"0.0-4.0-1.40","subject_id":"6072c51dc97bb5778fa9435d","study_id":"6197b3f67c2b5cd3b6d9596a","session_id":"6197b9e86f054380b61d078d","condition":"full-information","relevant_dimensions":["antennae","wings"],"bee_group":{"antennae":"B","wings":"2","pattern":"X","legs":"X"},"bonus":0.6800000000000003},{"rt":967.9000000357628,"stimulus":"bees-with-color/bee-B2DM.svg","response":1,"trial_type":"image-button-response","trial_index":89,"time_elapsed":288018,"internal_node_id":"0.0-4.0-0.41","subject_id":"6072c51dc97bb5778fa9435d","study_id":"6197b3f67c2b5cd3b6d9596a","session_id":"6197b9e86f054380b61d078d","condition":"full-information","relevant_dimensions":["antennae","wings"],"bee_group":{"antennae":"B","wings":"2","pattern":"X","legs":"X"},"action":"avoid","summary":"good-avoid","bonus":0.6800000000000003},{"rt":496,"stimulus":"\n                    <p><b>Action: <em>avoid</em></b></p>\n                    <p>This is the bee that you just saw.</p>\n                    <img src=\"bees-with-color/bee-B2DM.svg\" width=\"200\">\n                    <p><span class=\"greenText\">Good choice!</span>  This bee would have stung you.<br>Your bonus pay is unchanged, and remains at $0.66.</p>\n            ","response":0,"trial_type":"html-button-response","trial_index":90,"time_elapsed":288515,"internal_node_id":"0.0-4.0-1.41","subject_id":"6072c51dc97bb5778fa9435d","study_id":"6197b3f67c2b5cd3b6d9596a","session_id":"6197b9e86f054380b61d078d","condition":"full-information","relevant_dimensions":["antennae","wings"],"bee_group":{"antennae":"B","wings":"2","pattern":"X","legs":"X"},"bonus":0.6800000000000003},{"rt":811.0999999642372,"stimulus":"bees-with-color/bee-B2DF.svg","response":1,"trial_type":"image-button-response","trial_index":91,"time_elapsed":289327,"internal_node_id":"0.0-4.0-0.42","subject_id":"6072c51dc97bb5778fa9435d","study_id":"6197b3f67c2b5cd3b6d9596a","session_id":"6197b9e86f054380b61d078d","condition":"full-information","relevant_dimensions":["antennae","wings"],"bee_group":{"antennae":"B","wings":"2","pattern":"X","legs":"X"},"action":"avoid","summary":"good-avoid","bonus":0.6800000000000003},{"rt":432,"stimulus":"\n                    <p><b>Action: <em>avoid</em></b></p>\n                    <p>This is the bee that you just saw.</p>\n                    <img src=\"bees-with-color/bee-B2DF.svg\" width=\"200\">\n                    <p><span class=\"greenText\">Good choice!</span>  This bee would have stung you.<br>Your bonus pay is unchanged, and remains at $0.66.</p>\n            ","response":0,"trial_type":"html-button-response","trial_index":92,"time_elapsed":289760,"internal_node_id":"0.0-4.0-1.42","subject_id":"6072c51dc97bb5778fa9435d","study_id":"6197b3f67c2b5cd3b6d9596a","session_id":"6197b9e86f054380b61d078d","condition":"full-information","relevant_dimensions":["antennae","wings"],"bee_group":{"antennae":"B","wings":"2","pattern":"X","legs":"X"},"bonus":0.6800000000000003},{"rt":788.3000000119209,"stimulus":"bees-with-color/bee-A2SF.svg","response":1,"trial_type":"image-button-response","trial_index":93,"time_elapsed":290549,"internal_node_id":"0.0-4.0-0.43","subject_id":"6072c51dc97bb5778fa9435d","study_id":"6197b3f67c2b5cd3b6d9596a","session_id":"6197b9e86f054380b61d078d","condition":"full-information","relevant_dimensions":["antennae","wings"],"bee_group":{"antennae":"B","wings":"2","pattern":"X","legs":"X"},"action":"avoid","summary":"bad-avoid","bonus":0.6800000000000003},{"rt":496,"stimulus":"\n                    <p><b>Action: <em>avoid</em></b></p>\n                    <p>This is the bee that you just saw.</p>\n                    <img src=\"bees-with-color/bee-A2SF.svg\" width=\"200\">\n                    <p><span class=\"redText\">Bad choice,</span> the bee was friendly.<br>Your bonus pay is unchanged, and remains at $0.66.</p>\n            ","response":0,"trial_type":"html-button-response","trial_index":94,"time_elapsed":291046,"internal_node_id":"0.0-4.0-1.43","subject_id":"6072c51dc97bb5778fa9435d","study_id":"6197b3f67c2b5cd3b6d9596a","session_id":"6197b9e86f054380b61d078d","condition":"full-information","relevant_dimensions":["antennae","wings"],"bee_group":{"antennae":"B","wings":"2","pattern":"X","legs":"X"},"bonus":0.6800000000000003},{"rt":2027.5,"stimulus":"bees-with-color/bee-A2DM.svg","response":1,"trial_type":"image-button-response","trial_index":95,"time_elapsed":293074,"internal_node_id":"0.0-4.0-0.44","subject_id":"6072c51dc97bb5778fa9435d","study_id":"6197b3f67c2b5cd3b6d9596a","session_id":"6197b9e86f054380b61d078d","condition":"full-information","relevant_dimensions":["antennae","wings"],"bee_group":{"antennae":"B","wings":"2","pattern":"X","legs":"X"},"action":"avoid","summary":"bad-avoid","bonus":0.6800000000000003},{"rt":1562.300000011921,"stimulus":"\n                    <p><b>Action: <em>avoid</em></b></p>\n                    <p>This is the bee that you just saw.</p>\n                    <img src=\"bees-with-color/bee-A2DM.svg\" width=\"200\">\n                    <p><span class=\"redText\">Bad choice,</span> the bee was friendly.<br>Your bonus pay is unchanged, and remains at $0.66.</p>\n            ","response":0,"trial_type":"html-button-response","trial_index":96,"time_elapsed":294637,"internal_node_id":"0.0-4.0-1.44","subject_id":"6072c51dc97bb5778fa9435d","study_id":"6197b3f67c2b5cd3b6d9596a","session_id":"6197b9e86f054380b61d078d","condition":"full-information","relevant_dimensions":["antennae","wings"],"bee_group":{"antennae":"B","wings":"2","pattern":"X","legs":"X"},"bonus":0.6800000000000003},{"rt":1827.300000011921,"stimulus":"bees-with-color/bee-B1SF.svg","response":1,"trial_type":"image-button-response","trial_index":97,"time_elapsed":296466,"internal_node_id":"0.0-4.0-0.45","subject_id":"6072c51dc97bb5778fa9435d","study_id":"6197b3f67c2b5cd3b6d9596a","session_id":"6197b9e86f054380b61d078d","condition":"full-information","relevant_dimensions":["antennae","wings"],"bee_group":{"antennae":"B","wings":"2","pattern":"X","legs":"X"},"action":"avoid","summary":"bad-avoid","bonus":0.6800000000000003},{"rt":565.1999999880791,"stimulus":"\n                    <p><b>Action: <em>avoid</em></b></p>\n                    <p>This is the bee that you just saw.</p>\n                    <img src=\"bees-with-color/bee-B1SF.svg\" width=\"200\">\n                    <p><span class=\"redText\">Bad choice,</span> the bee was friendly.<br>Your bonus pay is unchanged, and remains at $0.66.</p>\n            ","response":0,"trial_type":"html-button-response","trial_index":98,"time_elapsed":297032,"internal_node_id":"0.0-4.0-1.45","subject_id":"6072c51dc97bb5778fa9435d","study_id":"6197b3f67c2b5cd3b6d9596a","session_id":"6197b9e86f054380b61d078d","condition":"full-information","relevant_dimensions":["antennae","wings"],"bee_group":{"antennae":"B","wings":"2","pattern":"X","legs":"X"},"bonus":0.6800000000000003},{"rt":1418.1000000238419,"stimulus":"bees-with-color/bee-A1SM.svg","response":1,"trial_type":"image-button-response","trial_index":99,"time_elapsed":298451,"internal_node_id":"0.0-4.0-0.46","subject_id":"6072c51dc97bb5778fa9435d","study_id":"6197b3f67c2b5cd3b6d9596a","session_id":"6197b9e86f054380b61d078d","condition":"full-information","relevant_dimensions":["antennae","wings"],"bee_group":{"antennae":"B","wings":"2","pattern":"X","legs":"X"},"action":"avoid","summary":"bad-avoid","bonus":0.6800000000000003},{"rt":577.8999999761581,"stimulus":"\n                    <p><b>Action: <em>avoid</em></b></p>\n                    <p>This is the bee that you just saw.</p>\n                    <img src=\"bees-with-color/bee-A1SM.svg\" width=\"200\">\n                    <p><span class=\"redText\">Bad choice,</span> the bee was friendly.<br>Your bonus pay is unchanged, and remains at $0.66.</p>\n            ","response":0,"trial_type":"html-button-response","trial_index":100,"time_elapsed":299030,"internal_node_id":"0.0-4.0-1.46","subject_id":"6072c51dc97bb5778fa9435d","study_id":"6197b3f67c2b5cd3b6d9596a","session_id":"6197b9e86f054380b61d078d","condition":"full-information","relevant_dimensions":["antennae","wings"],"bee_group":{"antennae":"B","wings":"2","pattern":"X","legs":"X"},"bonus":0.6800000000000003},{"rt":753.2999999523163,"stimulus":"bees-with-color/bee-A2SM.svg","response":1,"trial_type":"image-button-response","trial_index":101,"time_elapsed":299785,"internal_node_id":"0.0-4.0-0.47","subject_id":"6072c51dc97bb5778fa9435d","study_id":"6197b3f67c2b5cd3b6d9596a","session_id":"6197b9e86f054380b61d078d","condition":"full-information","relevant_dimensions":["antennae","wings"],"bee_group":{"antennae":"B","wings":"2","pattern":"X","legs":"X"},"action":"avoid","summary":"bad-avoid","bonus":0.6800000000000003},{"rt":385.5,"stimulus":"\n                    <p><b>Action: <em>avoid</em></b></p>\n                    <p>This is the bee that you just saw.</p>\n                    <img src=\"bees-with-color/bee-A2SM.svg\" width=\"200\">\n                    <p><span class=\"redText\">Bad choice,</span> the bee was friendly.<br>Your bonus pay is unchanged, and remains at $0.66.</p>\n            ","response":0,"trial_type":"html-button-response","trial_index":102,"time_elapsed":300171,"internal_node_id":"0.0-4.0-1.47","subject_id":"6072c51dc97bb5778fa9435d","study_id":"6197b3f67c2b5cd3b6d9596a","session_id":"6197b9e86f054380b61d078d","condition":"full-information","relevant_dimensions":["antennae","wings"],"bee_group":{"antennae":"B","wings":"2","pattern":"X","legs":"X"},"bonus":0.6800000000000003},{"rt":1468.5,"stimulus":"bees-with-color/bee-A1DF.svg","response":1,"trial_type":"image-button-response","trial_index":103,"time_elapsed":301640,"internal_node_id":"0.0-4.0-0.48","subject_id":"6072c51dc97bb5778fa9435d","study_id":"6197b3f67c2b5cd3b6d9596a","session_id":"6197b9e86f054380b61d078d","condition":"full-information","relevant_dimensions":["antennae","wings"],"bee_group":{"antennae":"B","wings":"2","pattern":"X","legs":"X"},"action":"avoid","summary":"bad-avoid","bonus":0.6800000000000003},{"rt":771.3999999761581,"stimulus":"\n                    <p><b>Action: <em>avoid</em></b></p>\n                    <p>This is the bee that you just saw.</p>\n                    <img src=\"bees-with-color/bee-A1DF.svg\" width=\"200\">\n                    <p><span class=\"redText\">Bad choice,</span> the bee was friendly.<br>Your bonus pay is unchanged, and remains at $0.66.</p>\n            ","response":0,"trial_type":"html-button-response","trial_index":104,"time_elapsed":302413,"internal_node_id":"0.0-4.0-1.48","subject_id":"6072c51dc97bb5778fa9435d","study_id":"6197b3f67c2b5cd3b6d9596a","session_id":"6197b9e86f054380b61d078d","condition":"full-information","relevant_dimensions":["antennae","wings"],"bee_group":{"antennae":"B","wings":"2","pattern":"X","legs":"X"},"bonus":0.6800000000000003},{"rt":857,"stimulus":"bees-with-color/bee-B1DF.svg","response":1,"trial_type":"image-button-response","trial_index":105,"time_elapsed":303271,"internal_node_id":"0.0-4.0-0.49","subject_id":"6072c51dc97bb5778fa9435d","study_id":"6197b3f67c2b5cd3b6d9596a","session_id":"6197b9e86f054380b61d078d","condition":"full-information","relevant_dimensions":["antennae","wings"],"bee_group":{"antennae":"B","wings":"2","pattern":"X","legs":"X"},"action":"avoid","summary":"bad-avoid","bonus":0.6800000000000003},{"rt":436.7999999523163,"stimulus":"\n                    <p><b>Action: <em>avoid</em></b></p>\n                    <p>This is the bee that you just saw.</p>\n                    <img src=\"bees-with-color/bee-B1DF.svg\" width=\"200\">\n                    <p><span class=\"redText\">Bad choice,</span> the bee was friendly.<br>Your bonus pay is unchanged, and remains at $0.66.</p>\n            ","response":0,"trial_type":"html-button-response","trial_index":106,"time_elapsed":303709,"internal_node_id":"0.0-4.0-1.49","subject_id":"6072c51dc97bb5778fa9435d","study_id":"6197b3f67c2b5cd3b6d9596a","session_id":"6197b9e86f054380b61d078d","condition":"full-information","relevant_dimensions":["antennae","wings"],"bee_group":{"antennae":"B","wings":"2","pattern":"X","legs":"X"},"bonus":0.6800000000000003},{"rt":717.1999999880791,"stimulus":"bees-with-color/bee-A2DF.svg","response":1,"trial_type":"image-button-response","trial_index":107,"time_elapsed":304427,"internal_node_id":"0.0-4.0-0.50","subject_id":"6072c51dc97bb5778fa9435d","study_id":"6197b3f67c2b5cd3b6d9596a","session_id":"6197b9e86f054380b61d078d","condition":"full-information","relevant_dimensions":["antennae","wings"],"bee_group":{"antennae":"B","wings":"2","pattern":"X","legs":"X"},"action":"avoid","summary":"bad-avoid","bonus":0.6800000000000003},{"rt":380.89999997615814,"stimulus":"\n                    <p><b>Action: <em>avoid</em></b></p>\n                    <p>This is the bee that you just saw.</p>\n                    <img src=\"bees-with-color/bee-A2DF.svg\" width=\"200\">\n                    <p><span class=\"redText\">Bad choice,</span> the bee was friendly.<br>Your bonus pay is unchanged, and remains at $0.66.</p>\n            ","response":0,"trial_type":"html-button-response","trial_index":108,"time_elapsed":304809,"internal_node_id":"0.0-4.0-1.50","subject_id":"6072c51dc97bb5778fa9435d","study_id":"6197b3f67c2b5cd3b6d9596a","session_id":"6197b9e86f054380b61d078d","condition":"full-information","relevant_dimensions":["antennae","wings"],"bee_group":{"antennae":"B","wings":"2","pattern":"X","legs":"X"},"bonus":0.6800000000000003},{"rt":830,"stimulus":"bees-with-color/bee-B2SM.svg","response":1,"trial_type":"image-button-response","trial_index":109,"time_elapsed":305640,"internal_node_id":"0.0-4.0-0.51","subject_id":"6072c51dc97bb5778fa9435d","study_id":"6197b3f67c2b5cd3b6d9596a","session_id":"6197b9e86f054380b61d078d","condition":"full-information","relevant_dimensions":["antennae","wings"],"bee_group":{"antennae":"B","wings":"2","pattern":"X","legs":"X"},"action":"avoid","summary":"good-avoid","bonus":0.6800000000000003},{"rt":1121.800000011921,"stimulus":"\n                    <p><b>Action: <em>avoid</em></b></p>\n                    <p>This is the bee that you just saw.</p>\n                    <img src=\"bees-with-color/bee-B2SM.svg\" width=\"200\">\n                    <p><span class=\"greenText\">Good choice!</span>  This bee would have stung you.<br>Your bonus pay is unchanged, and remains at $0.66.</p>\n            ","response":0,"trial_type":"html-button-response","trial_index":110,"time_elapsed":306762,"internal_node_id":"0.0-4.0-1.51","subject_id":"6072c51dc97bb5778fa9435d","study_id":"6197b3f67c2b5cd3b6d9596a","session_id":"6197b9e86f054380b61d078d","condition":"full-information","relevant_dimensions":["antennae","wings"],"bee_group":{"antennae":"B","wings":"2","pattern":"X","legs":"X"},"bonus":0.6800000000000003},{"rt":1116.199999988079,"stimulus":"bees-with-color/bee-A1SF.svg","response":1,"trial_type":"image-button-response","trial_index":111,"time_elapsed":307879,"internal_node_id":"0.0-4.0-0.52","subject_id":"6072c51dc97bb5778fa9435d","study_id":"6197b3f67c2b5cd3b6d9596a","session_id":"6197b9e86f054380b61d078d","condition":"full-information","relevant_dimensions":["antennae","wings"],"bee_group":{"antennae":"B","wings":"2","pattern":"X","legs":"X"},"action":"avoid","summary":"bad-avoid","bonus":0.6800000000000003},{"rt":379.10000002384186,"stimulus":"\n                    <p><b>Action: <em>avoid</em></b></p>\n                    <p>This is the bee that you just saw.</p>\n                    <img src=\"bees-with-color/bee-A1SF.svg\" width=\"200\">\n                    <p><span class=\"redText\">Bad choice,</span> the bee was friendly.<br>Your bonus pay is unchanged, and remains at $0.66.</p>\n            ","response":0,"trial_type":"html-button-response","trial_index":112,"time_elapsed":308259,"internal_node_id":"0.0-4.0-1.52","subject_id":"6072c51dc97bb5778fa9435d","study_id":"6197b3f67c2b5cd3b6d9596a","session_id":"6197b9e86f054380b61d078d","condition":"full-information","relevant_dimensions":["antennae","wings"],"bee_group":{"antennae":"B","wings":"2","pattern":"X","legs":"X"},"bonus":0.6800000000000003},{"rt":486.19999998807907,"stimulus":"bees-with-color/bee-B1DM.svg","response":1,"trial_type":"image-button-response","trial_index":113,"time_elapsed":308746,"internal_node_id":"0.0-4.0-0.53","subject_id":"6072c51dc97bb5778fa9435d","study_id":"6197b3f67c2b5cd3b6d9596a","session_id":"6197b9e86f054380b61d078d","condition":"full-information","relevant_dimensions":["antennae","wings"],"bee_group":{"antennae":"B","wings":"2","pattern":"X","legs":"X"},"action":"avoid","summary":"bad-avoid","bonus":0.6800000000000003},{"rt":432.39999997615814,"stimulus":"\n                    <p><b>Action: <em>avoid</em></b></p>\n                    <p>This is the bee that you just saw.</p>\n                    <img src=\"bees-with-color/bee-B1DM.svg\" width=\"200\">\n                    <p><span class=\"redText\">Bad choice,</span> the bee was friendly.<br>Your bonus pay is unchanged, and remains at $0.66.</p>\n            ","response":0,"trial_type":"html-button-response","trial_index":114,"time_elapsed":309180,"internal_node_id":"0.0-4.0-1.53","subject_id":"6072c51dc97bb5778fa9435d","study_id":"6197b3f67c2b5cd3b6d9596a","session_id":"6197b9e86f054380b61d078d","condition":"full-information","relevant_dimensions":["antennae","wings"],"bee_group":{"antennae":"B","wings":"2","pattern":"X","legs":"X"},"bonus":0.6800000000000003},{"rt":317,"stimulus":"bees-with-color/bee-B1SM.svg","response":1,"trial_type":"image-button-response","trial_index":115,"time_elapsed":309497,"internal_node_id":"0.0-4.0-0.54","subject_id":"6072c51dc97bb5778fa9435d","study_id":"6197b3f67c2b5cd3b6d9596a","session_id":"6197b9e86f054380b61d078d","condition":"full-information","relevant_dimensions":["antennae","wings"],"bee_group":{"antennae":"B","wings":"2","pattern":"X","legs":"X"},"action":"avoid","summary":"bad-avoid","bonus":0.6800000000000003},{"rt":360.19999998807907,"stimulus":"\n                    <p><b>Action: <em>avoid</em></b></p>\n                    <p>This is the bee that you just saw.</p>\n                    <img src=\"bees-with-color/bee-B1SM.svg\" width=\"200\">\n                    <p><span class=\"redText\">Bad choice,</span> the bee was friendly.<br>Your bonus pay is unchanged, and remains at $0.66.</p>\n            ","response":0,"trial_type":"html-button-response","trial_index":116,"time_elapsed":309858,"internal_node_id":"0.0-4.0-1.54","subject_id":"6072c51dc97bb5778fa9435d","study_id":"6197b3f67c2b5cd3b6d9596a","session_id":"6197b9e86f054380b61d078d","condition":"full-information","relevant_dimensions":["antennae","wings"],"bee_group":{"antennae":"B","wings":"2","pattern":"X","legs":"X"},"bonus":0.6800000000000003},{"rt":496.30000001192093,"stimulus":"bees-with-color/bee-B2DF.svg","response":1,"trial_type":"image-button-response","trial_index":117,"time_elapsed":310355,"internal_node_id":"0.0-4.0-0.55","subject_id":"6072c51dc97bb5778fa9435d","study_id":"6197b3f67c2b5cd3b6d9596a","session_id":"6197b9e86f054380b61d078d","condition":"full-information","relevant_dimensions":["antennae","wings"],"bee_group":{"antennae":"B","wings":"2","pattern":"X","legs":"X"},"action":"avoid","summary":"good-avoid","bonus":0.6800000000000003},{"rt":425.19999998807907,"stimulus":"\n                    <p><b>Action: <em>avoid</em></b></p>\n                    <p>This is the bee that you just saw.</p>\n                    <img src=\"bees-with-color/bee-B2DF.svg\" width=\"200\">\n                    <p><span class=\"greenText\">Good choice!</span>  This bee would have stung you.<br>Your bonus pay is unchanged, and remains at $0.66.</p>\n            ","response":0,"trial_type":"html-button-response","trial_index":118,"time_elapsed":310781,"internal_node_id":"0.0-4.0-1.55","subject_id":"6072c51dc97bb5778fa9435d","study_id":"6197b3f67c2b5cd3b6d9596a","session_id":"6197b9e86f054380b61d078d","condition":"full-information","relevant_dimensions":["antennae","wings"],"bee_group":{"antennae":"B","wings":"2","pattern":"X","legs":"X"},"bonus":0.6800000000000003},{"rt":687.5,"stimulus":"bees-with-color/bee-A2SF.svg","response":1,"trial_type":"image-button-response","trial_index":119,"time_elapsed":311470,"internal_node_id":"0.0-4.0-0.56","subject_id":"6072c51dc97bb5778fa9435d","study_id":"6197b3f67c2b5cd3b6d9596a","session_id":"6197b9e86f054380b61d078d","condition":"full-information","relevant_dimensions":["antennae","wings"],"bee_group":{"antennae":"B","wings":"2","pattern":"X","legs":"X"},"action":"avoid","summary":"bad-avoid","bonus":0.6800000000000003},{"rt":396.9000000357628,"stimulus":"\n                    <p><b>Action: <em>avoid</em></b></p>\n                    <p>This is the bee that you just saw.</p>\n                    <img src=\"bees-with-color/bee-A2SF.svg\" width=\"200\">\n                    <p><span class=\"redText\">Bad choice,</span> the bee was friendly.<br>Your bonus pay is unchanged, and remains at $0.66.</p>\n            ","response":0,"trial_type":"html-button-response","trial_index":120,"time_elapsed":311867,"internal_node_id":"0.0-4.0-1.56","subject_id":"6072c51dc97bb5778fa9435d","study_id":"6197b3f67c2b5cd3b6d9596a","session_id":"6197b9e86f054380b61d078d","condition":"full-information","relevant_dimensions":["antennae","wings"],"bee_group":{"antennae":"B","wings":"2","pattern":"X","legs":"X"},"bonus":0.6800000000000003},{"rt":1288.1000000238419,"stimulus":"bees-with-color/bee-B1SF.svg","response":0,"trial_type":"image-button-response","trial_index":121,"time_elapsed":313156,"internal_node_id":"0.0-4.0-0.57","subject_id":"6072c51dc97bb5778fa9435d","study_id":"6197b3f67c2b5cd3b6d9596a","session_id":"6197b9e86f054380b61d078d","condition":"full-information","relevant_dimensions":["antennae","wings"],"bee_group":{"antennae":"B","wings":"2","pattern":"X","legs":"X"},"action":"harvest","summary":"good-harvest","bonus":0.6800000000000003},{"rt":718.1999999880791,"stimulus":"\n                    <p><b>Action: <em>harvest</em></b></p>\n                    <p>This is the bee that you just saw.</p>\n                    <img src=\"bees-with-color/bee-B1SF.svg\" width=\"200\">\n                    <p><span class=\"greenText\"><b>Successful harvest!</b></span><br>Your pay has increased by $0.02. Your bonus pay is now $0.68.</p>\n            ","response":0,"trial_type":"html-button-response","trial_index":122,"time_elapsed":313875,"internal_node_id":"0.0-4.0-1.57","subject_id":"6072c51dc97bb5778fa9435d","study_id":"6197b3f67c2b5cd3b6d9596a","session_id":"6197b9e86f054380b61d078d","condition":"full-information","relevant_dimensions":["antennae","wings"],"bee_group":{"antennae":"B","wings":"2","pattern":"X","legs":"X"},"bonus":0.6800000000000003},{"rt":816.3000000119209,"stimulus":"bees-with-color/bee-A2SM.svg","response":1,"trial_type":"image-button-response","trial_index":123,"time_elapsed":314693,"internal_node_id":"0.0-4.0-0.58","subject_id":"6072c51dc97bb5778fa9435d","study_id":"6197b3f67c2b5cd3b6d9596a","session_id":"6197b9e86f054380b61d078d","condition":"full-information","relevant_dimensions":["antennae","wings"],"bee_group":{"antennae":"B","wings":"2","pattern":"X","legs":"X"},"action":"avoid","summary":"bad-avoid","bonus":0.6800000000000003},{"rt":462.30000001192093,"stimulus":"\n                    <p><b>Action: <em>avoid</em></b></p>\n                    <p>This is the bee that you just saw.</p>\n                    <img src=\"bees-with-color/bee-A2SM.svg\" width=\"200\">\n                    <p><span class=\"redText\">Bad choice,</span> the bee was friendly.<br>Your bonus pay is unchanged, and remains at $0.68.</p>\n            ","response":0,"trial_type":"html-button-response","trial_index":124,"time_elapsed":315157,"internal_node_id":"0.0-4.0-1.58","subject_id":"6072c51dc97bb5778fa9435d","study_id":"6197b3f67c2b5cd3b6d9596a","session_id":"6197b9e86f054380b61d078d","condition":"full-information","relevant_dimensions":["antennae","wings"],"bee_group":{"antennae":"B","wings":"2","pattern":"X","legs":"X"},"bonus":0.6800000000000003},{"rt":3083.100000023842,"stimulus":"bees-with-color/bee-A1DM.svg","response":1,"trial_type":"image-button-response","trial_index":125,"time_elapsed":318242,"internal_node_id":"0.0-4.0-0.59","subject_id":"6072c51dc97bb5778fa9435d","study_id":"6197b3f67c2b5cd3b6d9596a","session_id":"6197b9e86f054380b61d078d","condition":"full-information","relevant_dimensions":["antennae","wings"],"bee_group":{"antennae":"B","wings":"2","pattern":"X","legs":"X"},"action":"avoid","summary":"bad-avoid","bonus":0.6800000000000003},{"rt":433.9000000357628,"stimulus":"\n                    <p><b>Action: <em>avoid</em></b></p>\n                    <p>This is the bee that you just saw.</p>\n                    <img src=\"bees-with-color/bee-A1DM.svg\" width=\"200\">\n                    <p><span class=\"redText\">Bad choice,</span> the bee was friendly.<br>Your bonus pay is unchanged, and remains at $0.68.</p>\n            ","response":0,"trial_type":"html-button-response","trial_index":126,"time_elapsed":318676,"internal_node_id":"0.0-4.0-1.59","subject_id":"6072c51dc97bb5778fa9435d","study_id":"6197b3f67c2b5cd3b6d9596a","session_id":"6197b9e86f054380b61d078d","condition":"full-information","relevant_dimensions":["antennae","wings"],"bee_group":{"antennae":"B","wings":"2","pattern":"X","legs":"X"},"bonus":0.6800000000000003},{"rt":723,"stimulus":"bees-with-color/bee-B2DM.svg","response":1,"trial_type":"image-button-response","trial_index":127,"time_elapsed":319401,"internal_node_id":"0.0-4.0-0.60","subject_id":"6072c51dc97bb5778fa9435d","study_id":"6197b3f67c2b5cd3b6d9596a","session_id":"6197b9e86f054380b61d078d","condition":"full-information","relevant_dimensions":["antennae","wings"],"bee_group":{"antennae":"B","wings":"2","pattern":"X","legs":"X"},"action":"avoid","summary":"good-avoid","bonus":0.6800000000000003},{"rt":373,"stimulus":"\n                    <p><b>Action: <em>avoid</em></b></p>\n                    <p>This is the bee that you just saw.</p>\n                    <img src=\"bees-with-color/bee-B2DM.svg\" width=\"200\">\n                    <p><span class=\"greenText\">Good choice!</span>  This bee would have stung you.<br>Your bonus pay is unchanged, and remains at $0.68.</p>\n            ","response":0,"trial_type":"html-button-response","trial_index":128,"time_elapsed":319774,"internal_node_id":"0.0-4.0-1.60","subject_id":"6072c51dc97bb5778fa9435d","study_id":"6197b3f67c2b5cd3b6d9596a","session_id":"6197b9e86f054380b61d078d","condition":"full-information","relevant_dimensions":["antennae","wings"],"bee_group":{"antennae":"B","wings":"2","pattern":"X","legs":"X"},"bonus":0.6800000000000003},{"rt":696.5,"stimulus":"bees-with-color/bee-A2DM.svg","response":1,"trial_type":"image-button-response","trial_index":129,"time_elapsed":320472,"internal_node_id":"0.0-4.0-0.61","subject_id":"6072c51dc97bb5778fa9435d","study_id":"6197b3f67c2b5cd3b6d9596a","session_id":"6197b9e86f054380b61d078d","condition":"full-information","relevant_dimensions":["antennae","wings"],"bee_group":{"antennae":"B","wings":"2","pattern":"X","legs":"X"},"action":"avoid","summary":"bad-avoid","bonus":0.6800000000000003},{"rt":380.89999997615814,"stimulus":"\n                    <p><b>Action: <em>avoid</em></b></p>\n                    <p>This is the bee that you just saw.</p>\n                    <img src=\"bees-with-color/bee-A2DM.svg\" width=\"200\">\n                    <p><span class=\"redText\">Bad choice,</span> the bee was friendly.<br>Your bonus pay is unchanged, and remains at $0.68.</p>\n            ","response":0,"trial_type":"html-button-response","trial_index":130,"time_elapsed":320854,"internal_node_id":"0.0-4.0-1.61","subject_id":"6072c51dc97bb5778fa9435d","study_id":"6197b3f67c2b5cd3b6d9596a","session_id":"6197b9e86f054380b61d078d","condition":"full-information","relevant_dimensions":["antennae","wings"],"bee_group":{"antennae":"B","wings":"2","pattern":"X","legs":"X"},"bonus":0.6800000000000003},{"rt":1449,"stimulus":"bees-with-color/bee-A1SM.svg","response":1,"trial_type":"image-button-response","trial_index":131,"time_elapsed":322303,"internal_node_id":"0.0-4.0-0.62","subject_id":"6072c51dc97bb5778fa9435d","study_id":"6197b3f67c2b5cd3b6d9596a","session_id":"6197b9e86f054380b61d078d","condition":"full-information","relevant_dimensions":["antennae","wings"],"bee_group":{"antennae":"B","wings":"2","pattern":"X","legs":"X"},"action":"avoid","summary":"bad-avoid","bonus":0.6800000000000003},{"rt":431.19999998807907,"stimulus":"\n                    <p><b>Action: <em>avoid</em></b></p>\n                    <p>This is the bee that you just saw.</p>\n                    <img src=\"bees-with-color/bee-A1SM.svg\" width=\"200\">\n                    <p><span class=\"redText\">Bad choice,</span> the bee was friendly.<br>Your bonus pay is unchanged, and remains at $0.68.</p>\n            ","response":0,"trial_type":"html-button-response","trial_index":132,"time_elapsed":322736,"internal_node_id":"0.0-4.0-1.62","subject_id":"6072c51dc97bb5778fa9435d","study_id":"6197b3f67c2b5cd3b6d9596a","session_id":"6197b9e86f054380b61d078d","condition":"full-information","relevant_dimensions":["antennae","wings"],"bee_group":{"antennae":"B","wings":"2","pattern":"X","legs":"X"},"bonus":0.6800000000000003},{"rt":753.8000000119209,"stimulus":"bees-with-color/bee-B2SF.svg","response":1,"trial_type":"image-button-response","trial_index":133,"time_elapsed":323490,"internal_node_id":"0.0-4.0-0.63","subject_id":"6072c51dc97bb5778fa9435d","study_id":"6197b3f67c2b5cd3b6d9596a","session_id":"6197b9e86f054380b61d078d","condition":"full-information","relevant_dimensions":["antennae","wings"],"bee_group":{"antennae":"B","wings":"2","pattern":"X","legs":"X"},"action":"avoid","summary":"good-avoid","bonus":0.6800000000000003},{"rt":375,"stimulus":"\n                    <p><b>Action: <em>avoid</em></b></p>\n                    <p>This is the bee that you just saw.</p>\n                    <img src=\"bees-with-color/bee-B2SF.svg\" width=\"200\">\n                    <p><span class=\"greenText\">Good choice!</span>  This bee would have stung you.<br>Your bonus pay is unchanged, and remains at $0.68.</p>\n            ","response":0,"trial_type":"html-button-response","trial_index":134,"time_elapsed":323866,"internal_node_id":"0.0-4.0-1.63","subject_id":"6072c51dc97bb5778fa9435d","study_id":"6197b3f67c2b5cd3b6d9596a","session_id":"6197b9e86f054380b61d078d","condition":"full-information","relevant_dimensions":["antennae","wings"],"bee_group":{"antennae":"B","wings":"2","pattern":"X","legs":"X"},"bonus":0.6800000000000003},{"rt":2794.600000023842,"stimulus":"You have completed the first part of this experiment.<br><br>You will now begin a shorter second part, in which you will receive no feedback.<br>The same rules regarding bonus pay apply.<br><br>Press any key to begin.","response":" ","trial_type":"html-keyboard-response","trial_index":135,"time_elapsed":326662,"internal_node_id":"0.0-5.0","subject_id":"6072c51dc97bb5778fa9435d","study_id":"6197b3f67c2b5cd3b6d9596a","session_id":"6197b9e86f054380b61d078d","condition":"full-information","relevant_dimensions":["antennae","wings"],"bee_group":{"antennae":"B","wings":"2","pattern":"X","legs":"X"},"bonus":0.6800000000000003},{"rt":4654.599999964237,"stimulus":"bees-with-color/bee-A2SM.svg","response":1,"trial_type":"image-button-response","trial_index":136,"time_elapsed":331321,"internal_node_id":"0.0-6.0-0.0","subject_id":"6072c51dc97bb5778fa9435d","study_id":"6197b3f67c2b5cd3b6d9596a","session_id":"6197b9e86f054380b61d078d","condition":"full-information","relevant_dimensions":["antennae","wings"],"bee_group":{"antennae":"B","wings":"2","pattern":"X","legs":"X"},"bonus":0.6800000000000003},{"rt":1501.300000011921,"stimulus":"bees-with-color/bee-B1DM.svg","response":1,"trial_type":"image-button-response","trial_index":137,"time_elapsed":332824,"internal_node_id":"0.0-6.0-0.1","subject_id":"6072c51dc97bb5778fa9435d","study_id":"6197b3f67c2b5cd3b6d9596a","session_id":"6197b9e86f054380b61d078d","condition":"full-information","relevant_dimensions":["antennae","wings"],"bee_group":{"antennae":"B","wings":"2","pattern":"X","legs":"X"},"bonus":0.6800000000000003},{"rt":967.8999999761581,"stimulus":"bees-with-color/bee-A2SF.svg","response":1,"trial_type":"image-button-response","trial_index":138,"time_elapsed":333793,"internal_node_id":"0.0-6.0-0.2","subject_id":"6072c51dc97bb5778fa9435d","study_id":"6197b3f67c2b5cd3b6d9596a","session_id":"6197b9e86f054380b61d078d","condition":"full-information","relevant_dimensions":["antennae","wings"],"bee_group":{"antennae":"B","wings":"2","pattern":"X","legs":"X"},"bonus":0.6800000000000003},{"rt":1010.7999999523163,"stimulus":"bees-with-color/bee-B2SM.svg","response":1,"trial_type":"image-button-response","trial_index":139,"time_elapsed":334805,"internal_node_id":"0.0-6.0-0.3","subject_id":"6072c51dc97bb5778fa9435d","study_id":"6197b3f67c2b5cd3b6d9596a","session_id":"6197b9e86f054380b61d078d","condition":"full-information","relevant_dimensions":["antennae","wings"],"bee_group":{"antennae":"B","wings":"2","pattern":"X","legs":"X"},"bonus":0.6800000000000003},{"rt":2412.599999964237,"stimulus":"bees-with-color/bee-A1DM.svg","response":1,"trial_type":"image-button-response","trial_index":140,"time_elapsed":337219,"internal_node_id":"0.0-6.0-0.4","subject_id":"6072c51dc97bb5778fa9435d","study_id":"6197b3f67c2b5cd3b6d9596a","session_id":"6197b9e86f054380b61d078d","condition":"full-information","relevant_dimensions":["antennae","wings"],"bee_group":{"antennae":"B","wings":"2","pattern":"X","legs":"X"},"bonus":0.6800000000000003},{"rt":423.69999998807907,"stimulus":"bees-with-color/bee-A2DF.svg","response":1,"trial_type":"image-button-response","trial_index":141,"time_elapsed":337644,"internal_node_id":"0.0-6.0-0.5","subject_id":"6072c51dc97bb5778fa9435d","study_id":"6197b3f67c2b5cd3b6d9596a","session_id":"6197b9e86f054380b61d078d","condition":"full-information","relevant_dimensions":["antennae","wings"],"bee_group":{"antennae":"B","wings":"2","pattern":"X","legs":"X"},"bonus":0.6800000000000003},{"rt":180.80000001192093,"stimulus":"bees-with-color/bee-B2DF.svg","response":1,"trial_type":"image-button-response","trial_index":142,"time_elapsed":337826,"internal_node_id":"0.0-6.0-0.6","subject_id":"6072c51dc97bb5778fa9435d","study_id":"6197b3f67c2b5cd3b6d9596a","session_id":"6197b9e86f054380b61d078d","condition":"full-information","relevant_dimensions":["antennae","wings"],"bee_group":{"antennae":"B","wings":"2","pattern":"X","legs":"X"},"bonus":0.6800000000000003},{"rt":308.80000001192093,"stimulus":"bees-with-color/bee-A1SF.svg","response":1,"trial_type":"image-button-response","trial_index":143,"time_elapsed":338136,"internal_node_id":"0.0-6.0-0.7","subject_id":"6072c51dc97bb5778fa9435d","study_id":"6197b3f67c2b5cd3b6d9596a","session_id":"6197b9e86f054380b61d078d","condition":"full-information","relevant_dimensions":["antennae","wings"],"bee_group":{"antennae":"B","wings":"2","pattern":"X","legs":"X"},"bonus":0.6800000000000003},{"rt":149.79999995231628,"stimulus":"bees-with-color/bee-A1SM.svg","response":1,"trial_type":"image-button-response","trial_index":144,"time_elapsed":338287,"internal_node_id":"0.0-6.0-0.8","subject_id":"6072c51dc97bb5778fa9435d","study_id":"6197b3f67c2b5cd3b6d9596a","session_id":"6197b9e86f054380b61d078d","condition":"full-information","relevant_dimensions":["antennae","wings"],"bee_group":{"antennae":"B","wings":"2","pattern":"X","legs":"X"},"bonus":0.6800000000000003},{"rt":144.5,"stimulus":"bees-with-color/bee-B1DF.svg","response":1,"trial_type":"image-button-response","trial_index":145,"time_elapsed":338434,"internal_node_id":"0.0-6.0-0.9","subject_id":"6072c51dc97bb5778fa9435d","study_id":"6197b3f67c2b5cd3b6d9596a","session_id":"6197b9e86f054380b61d078d","condition":"full-information","relevant_dimensions":["antennae","wings"],"bee_group":{"antennae":"B","wings":"2","pattern":"X","legs":"X"},"bonus":0.6800000000000003},{"rt":147.60000002384186,"stimulus":"bees-with-color/bee-B2DM.svg","response":1,"trial_type":"image-button-response","trial_index":146,"time_elapsed":338582,"internal_node_id":"0.0-6.0-0.10","subject_id":"6072c51dc97bb5778fa9435d","study_id":"6197b3f67c2b5cd3b6d9596a","session_id":"6197b9e86f054380b61d078d","condition":"full-information","relevant_dimensions":["antennae","wings"],"bee_group":{"antennae":"B","wings":"2","pattern":"X","legs":"X"},"bonus":0.6800000000000003},{"rt":135.89999997615814,"stimulus":"bees-with-color/bee-B1SF.svg","response":1,"trial_type":"image-button-response","trial_index":147,"time_elapsed":338719,"internal_node_id":"0.0-6.0-0.11","subject_id":"6072c51dc97bb5778fa9435d","study_id":"6197b3f67c2b5cd3b6d9596a","session_id":"6197b9e86f054380b61d078d","condition":"full-information","relevant_dimensions":["antennae","wings"],"bee_group":{"antennae":"B","wings":"2","pattern":"X","legs":"X"},"bonus":0.6800000000000003},{"rt":157.69999998807907,"stimulus":"bees-with-color/bee-B1SM.svg","response":1,"trial_type":"image-button-response","trial_index":148,"time_elapsed":338879,"internal_node_id":"0.0-6.0-0.12","subject_id":"6072c51dc97bb5778fa9435d","study_id":"6197b3f67c2b5cd3b6d9596a","session_id":"6197b9e86f054380b61d078d","condition":"full-information","relevant_dimensions":["antennae","wings"],"bee_group":{"antennae":"B","wings":"2","pattern":"X","legs":"X"},"bonus":0.6800000000000003},{"rt":162.9000000357628,"stimulus":"bees-with-color/bee-A2DM.svg","response":1,"trial_type":"image-button-response","trial_index":149,"time_elapsed":339043,"internal_node_id":"0.0-6.0-0.13","subject_id":"6072c51dc97bb5778fa9435d","study_id":"6197b3f67c2b5cd3b6d9596a","session_id":"6197b9e86f054380b61d078d","condition":"full-information","relevant_dimensions":["antennae","wings"],"bee_group":{"antennae":"B","wings":"2","pattern":"X","legs":"X"},"bonus":0.6800000000000003},{"rt":153.30000001192093,"stimulus":"bees-with-color/bee-A1DF.svg","response":1,"trial_type":"image-button-response","trial_index":150,"time_elapsed":339197,"internal_node_id":"0.0-6.0-0.14","subject_id":"6072c51dc97bb5778fa9435d","study_id":"6197b3f67c2b5cd3b6d9596a","session_id":"6197b9e86f054380b61d078d","condition":"full-information","relevant_dimensions":["antennae","wings"],"bee_group":{"antennae":"B","wings":"2","pattern":"X","legs":"X"},"bonus":0.6800000000000003},{"rt":151.69999998807907,"stimulus":"bees-with-color/bee-B2SF.svg","response":1,"trial_type":"image-button-response","trial_index":151,"time_elapsed":339350,"internal_node_id":"0.0-6.0-0.15","subject_id":"6072c51dc97bb5778fa9435d","study_id":"6197b3f67c2b5cd3b6d9596a","session_id":"6197b9e86f054380b61d078d","condition":"full-information","relevant_dimensions":["antennae","wings"],"bee_group":{"antennae":"B","wings":"2","pattern":"X","legs":"X"},"bonus":0.6800000000000003},{"rt":155.80000001192093,"stimulus":"bees-with-color/bee-A1SF.svg","response":1,"trial_type":"image-button-response","trial_index":152,"time_elapsed":339507,"internal_node_id":"0.0-6.0-0.16","subject_id":"6072c51dc97bb5778fa9435d","study_id":"6197b3f67c2b5cd3b6d9596a","session_id":"6197b9e86f054380b61d078d","condition":"full-information","relevant_dimensions":["antennae","wings"],"bee_group":{"antennae":"B","wings":"2","pattern":"X","legs":"X"},"bonus":0.6800000000000003},{"rt":158.5,"stimulus":"bees-with-color/bee-A1SM.svg","response":1,"trial_type":"image-button-response","trial_index":153,"time_elapsed":339668,"internal_node_id":"0.0-6.0-0.17","subject_id":"6072c51dc97bb5778fa9435d","study_id":"6197b3f67c2b5cd3b6d9596a","session_id":"6197b9e86f054380b61d078d","condition":"full-information","relevant_dimensions":["antennae","wings"],"bee_group":{"antennae":"B","wings":"2","pattern":"X","legs":"X"},"bonus":0.6800000000000003},{"rt":170.19999998807907,"stimulus":"bees-with-color/bee-B1DF.svg","response":1,"trial_type":"image-button-response","trial_index":154,"time_elapsed":339839,"internal_node_id":"0.0-6.0-0.18","subject_id":"6072c51dc97bb5778fa9435d","study_id":"6197b3f67c2b5cd3b6d9596a","session_id":"6197b9e86f054380b61d078d","condition":"full-information","relevant_dimensions":["antennae","wings"],"bee_group":{"antennae":"B","wings":"2","pattern":"X","legs":"X"},"bonus":0.6800000000000003},{"rt":163.19999998807907,"stimulus":"bees-with-color/bee-A2DF.svg","response":1,"trial_type":"image-button-response","trial_index":155,"time_elapsed":340004,"internal_node_id":"0.0-6.0-0.19","subject_id":"6072c51dc97bb5778fa9435d","study_id":"6197b3f67c2b5cd3b6d9596a","session_id":"6197b9e86f054380b61d078d","condition":"full-information","relevant_dimensions":["antennae","wings"],"bee_group":{"antennae":"B","wings":"2","pattern":"X","legs":"X"},"bonus":0.6800000000000003},{"rt":146.30000001192093,"stimulus":"bees-with-color/bee-B2SM.svg","response":1,"trial_type":"image-button-response","trial_index":156,"time_elapsed":340152,"internal_node_id":"0.0-6.0-0.20","subject_id":"6072c51dc97bb5778fa9435d","study_id":"6197b3f67c2b5cd3b6d9596a","session_id":"6197b9e86f054380b61d078d","condition":"full-information","relevant_dimensions":["antennae","wings"],"bee_group":{"antennae":"B","wings":"2","pattern":"X","legs":"X"},"bonus":0.6800000000000003},{"rt":328,"stimulus":"bees-with-color/bee-B1DM.svg","response":1,"trial_type":"image-button-response","trial_index":157,"time_elapsed":340482,"internal_node_id":"0.0-6.0-0.21","subject_id":"6072c51dc97bb5778fa9435d","study_id":"6197b3f67c2b5cd3b6d9596a","session_id":"6197b9e86f054380b61d078d","condition":"full-information","relevant_dimensions":["antennae","wings"],"bee_group":{"antennae":"B","wings":"2","pa