[{"success":true,"trial_type":"fullscreen","trial_index":0,"time_elapsed":3128,"internal_node_id":"0.0-0.0","subject_id":"5f4e97aae4fe380a7bad99c7","study_id":"6197b3f67c2b5cd3b6d9596a","session_id":"619be320cb0ea57f85b54834","condition":"full-information","relevant_dimensions":["pattern","legs"],"bee_group":{"antennae":"X","wings":"X","pattern":"D","legs":"M"},"bonus":1.5800000000000012},{"success":true,"timeout":false,"failed_images":[],"failed_audio":[],"failed_video":[],"trial_type":"preload","trial_index":1,"time_elapsed":4797,"internal_node_id":"0.0-1.0","subject_id":"5f4e97aae4fe380a7bad99c7","study_id":"6197b3f67c2b5cd3b6d9596a","session_id":"619be320cb0ea57f85b54834","condition":"full-information","relevant_dimensions":["pattern","legs"],"bee_group":{"antennae":"X","wings":"X","pattern":"D","legs":"M"},"bonus":1.5800000000000012},{"rt":977.0999999642372,"stimulus":"Welcome! Press any key to begin.","response":" ","trial_type":"html-keyboard-response","trial_index":2,"time_elapsed":5776,"internal_node_id":"0.0-2.0","subject_id":"5f4e97aae4fe380a7bad99c7","study_id":"6197b3f67c2b5cd3b6d9596a","session_id":"619be320cb0ea57f85b54834","condition":"full-information","relevant_dimensions":["pattern","legs"],"bee_group":{"antennae":"X","wings":"X","pattern":"D","legs":"M"},"bonus":1.5800000000000012},{"view_history":[{"page_index":0,"viewing_time":2962.100000023842},{"page_index":1,"viewing_time":9008.100000023842},{"page_index":2,"viewing_time":8869.099999964237},{"page_index":3,"viewing_time":10747.5},{"page_index":4,"viewing_time":5152.600000023842},{"page_index":5,"viewing_time":6499.300000011921},{"page_index":6,"viewing_time":8728.5},{"page_index":7,"viewing_time":4223.199999988079},{"page_index":8,"viewing_time":3903.800000011921},{"page_index":9,"viewing_time":2171.5},{"page_index":10,"viewing_time":2058.899999976158},{"page_index":11,"viewing_time":5550.399999976158},{"page_index":12,"viewing_time":6578.400000035763},{"page_index":13,"viewing_time":1284.699999988079},{"page_index":14,"viewing_time":1178.8999999761581}],"rt":78917.20000004768,"trial_type":"instructions","trial_index":3,"time_elapsed":84695,"internal_node_id":"0.0-3.0-0.0","subject_id":"5f4e97aae4fe380a7bad99c7","study_id":"6197b3f67c2b5cd3b6d9596a","session_id":"619be320cb0ea57f85b54834","condition":"full-information","relevant_dimensions":["pattern","legs"],"bee_group":{"antennae":"X","wings":"X","pattern":"D","legs":"M"},"bonus":1.5800000000000012},{"rt":11844.800000011921,"response":{"Q0":["Two or six legs","Stripes or spots on body","Single or double wings","Antennae or no antennae"]},"question_order":[0],"trial_type":"survey-multi-select","trial_index":4,"time_elapsed":96543,"internal_node_id":"0.0-3.0-1.0","subject_id":"5f4e97aae4fe380a7bad99c7","study_id":"6197b3f67c2b5cd3b6d9596a","session_id":"619be320cb0ea57f85b54834","condition":"full-information","relevant_dimensions":["pattern","legs"],"bee_group":{"antennae":"X","wings":"X","pattern":"D","legs":"M"},"correct":true,"bonus":1.5800000000000012},{"rt":36821.60000002384,"response":{"Q1":"No.","Q2":"Based on the four features of the bee.","Q3":"You learn if it was friendly or dangerous and alter your bonus."},"question_order":[0,1,2],"trial_type":"survey-multi-choice","trial_index":5,"time_elapsed":133367,"internal_node_id":"0.0-3.0-2.0","subject_id":"5f4e97aae4fe380a7bad99c7","study_id":"6197b3f67c2b5cd3b6d9596a","session_id":"619be320cb0ea57f85b54834","condition":"full-information","relevant_dimensions":["pattern","legs"],"bee_group":{"antennae":"X","wings":"X","pattern":"D","legs":"M"},"correct":false,"bonus":1.5800000000000012},{"rt":4159.5,"stimulus":"<p>You did not answer all comprehension questions correctly.<br>Press <b>continue</b> to review the instructions again.</p>","response":0,"trial_type":"html-button-response","trial_index":6,"time_elapsed":137529,"internal_node_id":"0.0-3.0-3.0","subject_id":"5f4e97aae4fe380a7bad99c7","study_id":"6197b3f67c2b5cd3b6d9596a","session_id":"619be320cb0ea57f85b54834","condition":"full-information","relevant_dimensions":["pattern","legs"],"bee_group":{"antennae":"X","wings":"X","pattern":"D","legs":"M"},"bonus":1.5800000000000012},{"view_history":[{"page_index":0,"viewing_time":818.8000000119209},{"page_index":1,"viewing_time":758.6999999880791},{"page_index":2,"viewing_time":744.0999999642372},{"page_index":3,"viewing_time":965.5},{"page_index":4,"viewing_time":729.6000000238419},{"page_index":5,"viewing_time":450.60000002384186},{"page_index":6,"viewing_time":743.1999999880791},{"page_index":7,"viewing_time":830.5999999642372},{"page_index":8,"viewing_time":501.30000001192093},{"page_index":9,"viewing_time":313.30000001192093},{"page_index":10,"viewing_time":279.89999997615814},{"page_index":11,"viewing_time":966.1000000238419},{"page_index":12,"viewing_time":829.3000000119209},{"page_index":13,"viewing_time":844.8000000119209},{"page_index":14,"viewing_time":715.2999999523163}],"rt":10491.599999964237,"trial_type":"instructions","trial_index":7,"time_elapsed":148022,"internal_node_id":"0.0-3.0-4.0-0.0","subject_id":"5f4e97aae4fe380a7bad99c7","study_id":"6197b3f67c2b5cd3b6d9596a","session_id":"619be320cb0ea57f85b54834","condition":"full-information","relevant_dimensions":["pattern","legs"],"bee_group":{"antennae":"X","wings":"X","pattern":"D","legs":"M"},"bonus":1.5800000000000012},{"rt":5052.400000035763,"response":{"Q0":["Two or six legs","Stripes or spots on body","Single or double wings","Antennae or no antennae"]},"question_order":[0],"trial_type":"survey-multi-select","trial_index":8,"time_elapsed":153080,"internal_node_id":"0.0-3.0-4.0-1.0","subject_id":"5f4e97aae4fe380a7bad99c7","study_id":"6197b3f67c2b5cd3b6d9596a","session_id":"619be320cb0ea57f85b54834","condition":"full-information","relevant_dimensions":["pattern","legs"],"bee_group":{"antennae":"X","wings":"X","pattern":"D","legs":"M"},"correct":true,"bonus":1.5800000000000012},{"rt":7121.600000023842,"response":{"Q1":"No.","Q2":"Based on the four features of the bee.","Q3":"You learn if it was friendly or dangerous, but do not alter your bonus."},"question_order":[0,1,2],"trial_type":"survey-multi-choice","trial_index":9,"time_elapsed":160204,"internal_node_id":"0.0-3.0-4.0-2.0","subject_id":"5f4e97aae4fe380a7bad99c7","study_id":"6197b3f67c2b5cd3b6d9596a","session_id":"619be320cb0ea57f85b54834","condition":"full-information","relevant_dimensions":["pattern","legs"],"bee_group":{"antennae":"X","wings":"X","pattern":"D","legs":"M"},"correct":true,"bonus":1.5800000000000012},{"rt":1800,"stimulus":"<p>Congrats, you got everything right<br>When you're ready, click the button below to continue to the experiment.</p>","response":0,"trial_type":"html-button-response","trial_index":10,"time_elapsed":162007,"internal_node_id":"0.0-3.0-4.0-3.0","subject_id":"5f4e97aae4fe380a7bad99c7","study_id":"6197b3f67c2b5cd3b6d9596a","session_id":"619be320cb0ea57f85b54834","condition":"full-information","relevant_dimensions":["pattern","legs"],"bee_group":{"antennae":"X","wings":"X","pattern":"D","legs":"M"},"bonus":1.5800000000000012},{"rt":9236.800000011921,"stimulus":"bees-with-color/bee-B2SF.svg","response":1,"trial_type":"image-button-response","trial_index":11,"time_elapsed":171249,"internal_node_id":"0.0-4.0-0.0","subject_id":"5f4e97aae4fe380a7bad99c7","study_id":"6197b3f67c2b5cd3b6d9596a","session_id":"619be320cb0ea57f85b54834","condition":"full-information","relevant_dimensions":["pattern","legs"],"bee_group":{"antennae":"X","wings":"X","pattern":"D","legs":"M"},"action":"avoid","summary":"bad-avoid","bonus":1.5800000000000012},{"rt":5975.199999988079,"stimulus":"\n                    <p><b>Action: <em>avoid</em></b></p>\n                    <p>This is the bee that you just saw.</p>\n                    <img src=\"bees-with-color/bee-B2SF.svg\" width=\"200\">\n                    <p><span class=\"redText\">Bad choice,</span> the bee was friendly.<br>Your bonus pay is unchanged, and remains at $0.54.</p>\n            ","response":0,"trial_type":"html-button-response","trial_index":12,"time_elapsed":177229,"internal_node_id":"0.0-4.0-1.0","subject_id":"5f4e97aae4fe380a7bad99c7","study_id":"6197b3f67c2b5cd3b6d9596a","session_id":"619be320cb0ea57f85b54834","condition":"full-information","relevant_dimensions":["pattern","legs"],"bee_group":{"antennae":"X","wings":"X","pattern":"D","legs":"M"},"bonus":1.5800000000000012},{"rt":2556.7000000476837,"stimulus":"bees-with-color/bee-A2SF.svg","response":1,"trial_type":"image-button-response","trial_index":13,"time_elapsed":179790,"internal_node_id":"0.0-4.0-0.1","subject_id":"5f4e97aae4fe380a7bad99c7","study_id":"6197b3f67c2b5cd3b6d9596a","session_id":"619be320cb0ea57f85b54834","condition":"full-information","relevant_dimensions":["pattern","legs"],"bee_group":{"antennae":"X","wings":"X","pattern":"D","legs":"M"},"action":"avoid","summary":"bad-avoid","bonus":1.5800000000000012},{"rt":1799.1000000238419,"stimulus":"\n                    <p><b>Action: <em>avoid</em></b></p>\n                    <p>This is the bee that you just saw.</p>\n                    <img src=\"bees-with-color/bee-A2SF.svg\" width=\"200\">\n                    <p><span class=\"redText\">Bad choice,</span> the bee was friendly.<br>Your bonus pay is unchanged, and remains at $0.54.</p>\n            ","response":0,"trial_type":"html-button-response","trial_index":14,"time_elapsed":181592,"internal_node_id":"0.0-4.0-1.1","subject_id":"5f4e97aae4fe380a7bad99c7","study_id":"6197b3f67c2b5cd3b6d9596a","session_id":"619be320cb0ea57f85b54834","condition":"full-information","relevant_dimensions":["pattern","legs"],"bee_group":{"antennae":"X","wings":"X","pattern":"D","legs":"M"},"bonus":1.5800000000000012},{"rt":1363.1000000238419,"stimulus":"bees-with-color/bee-A1SF.svg","response":1,"trial_type":"image-button-response","trial_index":15,"time_elapsed":182958,"internal_node_id":"0.0-4.0-0.2","subject_id":"5f4e97aae4fe380a7bad99c7","study_id":"6197b3f67c2b5cd3b6d9596a","session_id":"619be320cb0ea57f85b54834","condition":"full-information","relevant_dimensions":["pattern","legs"],"bee_group":{"antennae":"X","wings":"X","pattern":"D","legs":"M"},"action":"avoid","summary":"bad-avoid","bonus":1.5800000000000012},{"rt":2056.2999999523163,"stimulus":"\n                    <p><b>Action: <em>avoid</em></b></p>\n                    <p>This is the bee that you just saw.</p>\n                    <img src=\"bees-with-color/bee-A1SF.svg\" width=\"200\">\n                    <p><span class=\"redText\">Bad choice,</span> the bee was friendly.<br>Your bonus pay is unchanged, and remains at $0.54.</p>\n            ","response":0,"trial_type":"html-button-response","trial_index":16,"time_elapsed":185018,"internal_node_id":"0.0-4.0-1.2","subject_id":"5f4e97aae4fe380a7bad99c7","study_id":"6197b3f67c2b5cd3b6d9596a","session_id":"619be320cb0ea57f85b54834","condition":"full-information","relevant_dimensions":["pattern","legs"],"bee_group":{"antennae":"X","wings":"X","pattern":"D","legs":"M"},"bonus":1.5800000000000012},{"rt":1155.800000011921,"stimulus":"bees-with-color/bee-B1DF.svg","response":1,"trial_type":"image-button-response","trial_index":17,"time_elapsed":186176,"internal_node_id":"0.0-4.0-0.3","subject_id":"5f4e97aae4fe380a7bad99c7","study_id":"6197b3f67c2b5cd3b6d9596a","session_id":"619be320cb0ea57f85b54834","condition":"full-information","relevant_dimensions":["pattern","legs"],"bee_group":{"antennae":"X","wings":"X","pattern":"D","legs":"M"},"action":"avoid","summary":"bad-avoid","bonus":1.5800000000000012},{"rt":1322.800000011921,"stimulus":"\n                    <p><b>Action: <em>avoid</em></b></p>\n                    <p>This is the bee that you just saw.</p>\n                    <img src=\"bees-with-color/bee-B1DF.svg\" width=\"200\">\n                    <p><span class=\"redText\">Bad choice,</span> the bee was friendly.<br>Your bonus pay is unchanged, and remains at $0.54.</p>\n            ","response":0,"trial_type":"html-button-response","trial_index":18,"time_elapsed":187500,"internal_node_id":"0.0-4.0-1.3","subject_id":"5f4e97aae4fe380a7bad99c7","study_id":"6197b3f67c2b5cd3b6d9596a","session_id":"619be320cb0ea57f85b54834","condition":"full-information","relevant_dimensions":["pattern","legs"],"bee_group":{"antennae":"X","wings":"X","pattern":"D","legs":"M"},"bonus":1.5800000000000012},{"rt":1113.4000000357628,"stimulus":"bees-with-color/bee-A2SM.svg","response":1,"trial_type":"image-button-response","trial_index":19,"time_elapsed":188617,"internal_node_id":"0.0-4.0-0.4","subject_id":"5f4e97aae4fe380a7bad99c7","study_id":"6197b3f67c2b5cd3b6d9596a","session_id":"619be320cb0ea57f85b54834","condition":"full-information","relevant_dimensions":["pattern","legs"],"bee_group":{"antennae":"X","wings":"X","pattern":"D","legs":"M"},"action":"avoid","summary":"bad-avoid","bonus":1.5800000000000012},{"rt":1922,"stimulus":"\n                    <p><b>Action: <em>avoid</em></b></p>\n                    <p>This is the bee that you just saw.</p>\n                    <img src=\"bees-with-color/bee-A2SM.svg\" width=\"200\">\n                    <p><span class=\"redText\">Bad choice,</span> the bee was friendly.<br>Your bonus pay is unchanged, and remains at $0.54.</p>\n            ","response":0,"trial_type":"html-button-response","trial_index":20,"time_elapsed":190542,"internal_node_id":"0.0-4.0-1.4","subject_id":"5f4e97aae4fe380a7bad99c7","study_id":"6197b3f67c2b5cd3b6d9596a","session_id":"619be320cb0ea57f85b54834","condition":"full-information","relevant_dimensions":["pattern","legs"],"bee_group":{"antennae":"X","wings":"X","pattern":"D","legs":"M"},"bonus":1.5800000000000012},{"rt":1889.2999999523163,"stimulus":"bees-with-color/bee-B1SF.svg","response":0,"trial_type":"image-button-response","trial_index":21,"time_elapsed":192434,"internal_node_id":"0.0-4.0-0.5","subject_id":"5f4e97aae4fe380a7bad99c7","study_id":"6197b3f67c2b5cd3b6d9596a","session_id":"619be320cb0ea57f85b54834","condition":"full-information","relevant_dimensions":["pattern","legs"],"bee_group":{"antennae":"X","wings":"X","pattern":"D","legs":"M"},"action":"harvest","summary":"good-harvest","bonus":1.5800000000000012},{"rt":1131,"stimulus":"\n                    <p><b>Action: <em>harvest</em></b></p>\n                    <p>This is the bee that you just saw.</p>\n                    <img src=\"bees-with-color/bee-B1SF.svg\" width=\"200\">\n                    <p><span class=\"greenText\"><b>Successful harvest!</b></span><br>Your pay has increased by $0.02. Your bonus pay is now $0.56.</p>\n            ","response":0,"trial_type":"html-button-response","trial_index":22,"time_elapsed":193566,"internal_node_id":"0.0-4.0-1.5","subject_id":"5f4e97aae4fe380a7bad99c7","study_id":"6197b3f67c2b5cd3b6d9596a","session_id":"619be320cb0ea57f85b54834","condition":"full-information","relevant_dimensions":["pattern","legs"],"bee_group":{"antennae":"X","wings":"X","pattern":"D","legs":"M"},"bonus":1.5800000000000012},{"rt":2836.2999999523163,"stimulus":"bees-with-color/bee-B2DM.svg","response":0,"trial_type":"image-button-response","trial_index":23,"time_elapsed":196405,"internal_node_id":"0.0-4.0-0.6","subject_id":"5f4e97aae4fe380a7bad99c7","study_id":"6197b3f67c2b5cd3b6d9596a","session_id":"619be320cb0ea57f85b54834","condition":"full-information","relevant_dimensions":["pattern","legs"],"bee_group":{"antennae":"X","wings":"X","pattern":"D","legs":"M"},"action":"harvest","summary":"bad-harvest","bonus":1.5800000000000012},{"rt":2315.400000035763,"stimulus":"\n                    <p><b>Action: <em>harvest</em></b></p>\n                    <p>This is the bee that you just saw.</p>\n                    <img src=\"bees-with-color/bee-B2DM.svg\" width=\"200\">\n                    <p><span class=\"redText\">Bad choice, the bee was angry.</span><br><b>You have been stung!</b><br>Your pay has been decreased by $0.10. Your bonus pay is now $0.46.</p>\n            ","response":0,"trial_type":"html-button-response","trial_index":24,"time_elapsed":198723,"internal_node_id":"0.0-4.0-1.6","subject_id":"5f4e97aae4fe380a7bad99c7","study_id":"6197b3f67c2b5cd3b6d9596a","session_id":"619be320cb0ea57f85b54834","condition":"full-information","relevant_dimensions":["pattern","legs"],"bee_group":{"antennae":"X","wings":"X","pattern":"D","legs":"M"},"bonus":1.5800000000000012},{"rt":1448.3999999761581,"stimulus":"bees-with-color/bee-A2DM.svg","response":0,"trial_type":"image-button-response","trial_index":25,"time_elapsed":200174,"internal_node_id":"0.0-4.0-0.7","subject_id":"5f4e97aae4fe380a7bad99c7","study_id":"6197b3f67c2b5cd3b6d9596a","session_id":"619be320cb0ea57f85b54834","condition":"full-information","relevant_dimensions":["pattern","legs"],"bee_group":{"antennae":"X","wings":"X","pattern":"D","legs":"M"},"action":"harvest","summary":"bad-harvest","bonus":1.5800000000000012},{"rt":3072.900000035763,"stimulus":"\n                    <p><b>Action: <em>harvest</em></b></p>\n                    <p>This is the bee that you just saw.</p>\n                    <img src=\"bees-with-color/bee-A2DM.svg\" width=\"200\">\n                    <p><span class=\"redText\">Bad choice, the bee was angry.</span><br><b>You have been stung!</b><br>Your pay has been decreased by $0.10. Your bonus pay is now $0.36.</p>\n            ","response":0,"trial_type":"html-button-response","trial_index":26,"time_elapsed":203250,"internal_node_id":"0.0-4.0-1.7","subject_id":"5f4e97aae4fe380a7bad99c7","study_id":"6197b3f67c2b5cd3b6d9596a","session_id":"619be320cb0ea57f85b54834","condition":"full-information","relevant_dimensions":["pattern","legs"],"bee_group":{"antennae":"X","wings":"X","pattern":"D","legs":"M"},"bonus":1.5800000000000012},{"rt":1721.1000000238419,"stimulus":"bees-with-color/bee-B1SM.svg","response":1,"trial_type":"image-button-response","trial_index":27,"time_elapsed":204974,"internal_node_id":"0.0-4.0-0.8","subject_id":"5f4e97aae4fe380a7bad99c7","study_id":"6197b3f67c2b5cd3b6d9596a","session_id":"619be320cb0ea57f85b54834","condition":"full-information","relevant_dimensions":["pattern","legs"],"bee_group":{"antennae":"X","wings":"X","pattern":"D","legs":"M"},"action":"avoid","summary":"bad-avoid","bonus":1.5800000000000012},{"rt":848.5,"stimulus":"\n                    <p><b>Action: <em>avoid</em></b></p>\n                    <p>This is the bee that you just saw.</p>\n                    <img src=\"bees-with-color/bee-B1SM.svg\" width=\"200\">\n                    <p><span class=\"redText\">Bad choice,</span> the bee was friendly.<br>Your bonus pay is unchanged, and remains at $0.36.</p>\n            ","response":0,"trial_type":"html-button-response","trial_index":28,"time_elapsed":205825,"internal_node_id":"0.0-4.0-1.8","subject_id":"5f4e97aae4fe380a7bad99c7","study_id":"6197b3f67c2b5cd3b6d9596a","session_id":"619be320cb0ea57f85b54834","condition":"full-information","relevant_dimensions":["pattern","legs"],"bee_group":{"antennae":"X","wings":"X","pattern":"D","legs":"M"},"bonus":1.5800000000000012},{"rt":1972.199999988079,"stimulus":"bees-with-color/bee-B1DM.svg","response":1,"trial_type":"image-button-response","trial_index":29,"time_elapsed":207800,"internal_node_id":"0.0-4.0-0.9","subject_id":"5f4e97aae4fe380a7bad99c7","study_id":"6197b3f67c2b5cd3b6d9596a","session_id":"619be320cb0ea57f85b54834","condition":"full-information","relevant_dimensions":["pattern","legs"],"bee_group":{"antennae":"X","wings":"X","pattern":"D","legs":"M"},"action":"avoid","summary":"good-avoid","bonus":1.5800000000000012},{"rt":2593,"stimulus":"\n                    <p><b>Action: <em>avoid</em></b></p>\n                    <p>This is the bee that you just saw.</p>\n                    <img src=\"bees-with-color/bee-B1DM.svg\" width=\"200\">\n                    <p><span class=\"greenText\">Good choice!</span>  This bee would have stung you.<br>Your bonus pay is unchanged, and remains at $0.36.</p>\n            ","response":0,"trial_type":"html-button-response","trial_index":30,"time_elapsed":210396,"internal_node_id":"0.0-4.0-1.9","subject_id":"5f4e97aae4fe380a7bad99c7","study_id":"6197b3f67c2b5cd3b6d9596a","session_id":"619be320cb0ea57f85b54834","condition":"full-information","relevant_dimensions":["pattern","legs"],"bee_group":{"antennae":"X","wings":"X","pattern":"D","legs":"M"},"bonus":1.5800000000000012},{"rt":1706.7000000476837,"stimulus":"bees-with-color/bee-A1DF.svg","response":0,"trial_type":"image-button-response","trial_index":31,"time_elapsed":212105,"internal_node_id":"0.0-4.0-0.10","subject_id":"5f4e97aae4fe380a7bad99c7","study_id":"6197b3f67c2b5cd3b6d9596a","session_id":"619be320cb0ea57f85b54834","condition":"full-information","relevant_dimensions":["pattern","legs"],"bee_group":{"antennae":"X","wings":"X","pattern":"D","legs":"M"},"action":"harvest","summary":"good-harvest","bonus":1.5800000000000012},{"rt":1041.0999999642372,"stimulus":"\n                    <p><b>Action: <em>harvest</em></b></p>\n                    <p>This is the bee that you just saw.</p>\n                    <img src=\"bees-with-color/bee-A1DF.svg\" width=\"200\">\n                    <p><span class=\"greenText\"><b>Successful harvest!</b></span><br>Your pay has increased by $0.02. Your bonus pay is now $0.38.</p>\n            ","response":0,"trial_type":"html-button-response","trial_index":32,"time_elapsed":213149,"internal_node_id":"0.0-4.0-1.10","subject_id":"5f4e97aae4fe380a7bad99c7","study_id":"6197b3f67c2b5cd3b6d9596a","session_id":"619be320cb0ea57f85b54834","condition":"full-information","relevant_dimensions":["pattern","legs"],"bee_group":{"antennae":"X","wings":"X","pattern":"D","legs":"M"},"bonus":1.5800000000000012},{"rt":1649.800000011921,"stimulus":"bees-with-color/bee-A2DF.svg","response":0,"trial_type":"image-button-response","trial_index":33,"time_elapsed":214801,"internal_node_id":"0.0-4.0-0.11","subject_id":"5f4e97aae4fe380a7bad99c7","study_id":"6197b3f67c2b5cd3b6d9596a","session_id":"619be320cb0ea57f85b54834","condition":"full-information","relevant_dimensions":["pattern","legs"],"bee_group":{"antennae":"X","wings":"X","pattern":"D","legs":"M"},"action":"harvest","summary":"good-harvest","bonus":1.5800000000000012},{"rt":812.3000000119209,"stimulus":"\n                    <p><b>Action: <em>harvest</em></b></p>\n                    <p>This is the bee that you just saw.</p>\n                    <img src=\"bees-with-color/bee-A2DF.svg\" width=\"200\">\n                    <p><span class=\"greenText\"><b>Successful harvest!</b></span><br>Your pay has increased by $0.02. Your bonus pay is now $0.40.</p>\n            ","response":0,"trial_type":"html-button-response","trial_index":34,"time_elapsed":215616,"internal_node_id":"0.0-4.0-1.11","subject_id":"5f4e97aae4fe380a7bad99c7","study_id":"6197b3f67c2b5cd3b6d9596a","session_id":"619be320cb0ea57f85b54834","condition":"full-information","relevant_dimensions":["pattern","legs"],"bee_group":{"antennae":"X","wings":"X","pattern":"D","legs":"M"},"bonus":1.5800000000000012},{"rt":1500.199999988079,"stimulus":"bees-with-color/bee-B2SM.svg","response":0,"trial_type":"image-button-response","trial_index":35,"time_elapsed":217118,"internal_node_id":"0.0-4.0-0.12","subject_id":"5f4e97aae4fe380a7bad99c7","study_id":"6197b3f67c2b5cd3b6d9596a","session_id":"619be320cb0ea57f85b54834","condition":"full-information","relevant_dimensions":["pattern","legs"],"bee_group":{"antennae":"X","wings":"X","pattern":"D","legs":"M"},"action":"harvest","summary":"good-harvest","bonus":1.5800000000000012},{"rt":762.8000000119209,"stimulus":"\n                    <p><b>Action: <em>harvest</em></b></p>\n                    <p>This is the bee that you just saw.</p>\n                    <img src=\"bees-with-color/bee-B2SM.svg\" width=\"200\">\n                    <p><span class=\"greenText\"><b>Successful harvest!</b></span><br>Your pay has increased by $0.02. Your bonus pay is now $0.42.</p>\n            ","response":0,"trial_type":"html-button-response","trial_index":36,"time_elapsed":217884,"internal_node_id":"0.0-4.0-1.12","subject_id":"5f4e97aae4fe380a7bad99c7","study_id":"6197b3f67c2b5cd3b6d9596a","session_id":"619be320cb0ea57f85b54834","condition":"full-information","relevant_dimensions":["pattern","legs"],"bee_group":{"antennae":"X","wings":"X","pattern":"D","legs":"M"},"bonus":1.5800000000000012},{"rt":1449,"stimulus":"bees-with-color/bee-A1DM.svg","response":1,"trial_type":"image-button-response","trial_index":37,"time_elapsed":219335,"internal_node_id":"0.0-4.0-0.13","subject_id":"5f4e97aae4fe380a7bad99c7","study_id":"6197b3f67c2b5cd3b6d9596a","session_id":"619be320cb0ea57f85b54834","condition":"full-information","relevant_dimensions":["pattern","legs"],"bee_group":{"antennae":"X","wings":"X","pattern":"D","legs":"M"},"action":"avoid","summary":"good-avoid","bonus":1.5800000000000012},{"rt":886.3000000119209,"stimulus":"\n                    <p><b>Action: <em>avoid</em></b></p>\n                    <p>This is the bee that you just saw.</p>\n                    <img src=\"bees-with-color/bee-A1DM.svg\" width=\"200\">\n                    <p><span class=\"greenText\">Good choice!</span>  This bee would have stung you.<br>Your bonus pay is unchanged, and remains at $0.42.</p>\n            ","response":0,"trial_type":"html-button-response","trial_index":38,"time_elapsed":220223,"internal_node_id":"0.0-4.0-1.13","subject_id":"5f4e97aae4fe380a7bad99c7","study_id":"6197b3f67c2b5cd3b6d9596a","session_id":"619be320cb0ea57f85b54834","condition":"full-information","relevant_dimensions":["pattern","legs"],"bee_group":{"antennae":"X","wings":"X","pattern":"D","legs":"M"},"bonus":1.5800000000000012},{"rt":2127.300000011921,"stimulus":"bees-with-color/bee-B2DF.svg","response":0,"trial_type":"image-button-response","trial_index":39,"time_elapsed":222353,"internal_node_id":"0.0-4.0-0.14","subject_id":"5f4e97aae4fe380a7bad99c7","study_id":"6197b3f67c2b5cd3b6d9596a","session_id":"619be320cb0ea57f85b54834","condition":"full-information","relevant_dimensions":["pattern","legs"],"bee_group":{"antennae":"X","wings":"X","pattern":"D","legs":"M"},"action":"harvest","summary":"good-harvest","bonus":1.5800000000000012},{"rt":806.8999999761581,"stimulus":"\n                    <p><b>Action: <em>harvest</em></b></p>\n                    <p>This is the bee that you just saw.</p>\n                    <img src=\"bees-with-color/bee-B2DF.svg\" width=\"200\">\n                    <p><span class=\"greenText\"><b>Successful harvest!</b></span><br>Your pay has increased by $0.02. Your bonus pay is now $0.44.</p>\n            ","response":0,"trial_type":"html-button-response","trial_index":40,"time_elapsed":223162,"internal_node_id":"0.0-4.0-1.14","subject_id":"5f4e97aae4fe380a7bad99c7","study_id":"6197b3f67c2b5cd3b6d9596a","session_id":"619be320cb0ea57f85b54834","condition":"full-information","relevant_dimensions":["pattern","legs"],"bee_group":{"antennae":"X","wings":"X","pattern":"D","legs":"M"},"bonus":1.5800000000000012},{"rt":942,"stimulus":"bees-with-color/bee-A1SM.svg","response":1,"trial_type":"image-button-response","trial_index":41,"time_elapsed":224106,"internal_node_id":"0.0-4.0-0.15","subject_id":"5f4e97aae4fe380a7bad99c7","study_id":"6197b3f67c2b5cd3b6d9596a","session_id":"619be320cb0ea57f85b54834","condition":"full-information","relevant_dimensions":["pattern","legs"],"bee_group":{"antennae":"X","wings":"X","pattern":"D","legs":"M"},"action":"avoid","summary":"bad-avoid","bonus":1.5800000000000012},{"rt":955.1000000238419,"stimulus":"\n                    <p><b>Action: <em>avoid</em></b></p>\n                    <p>This is the bee that you just saw.</p>\n                    <img src=\"bees-with-color/bee-A1SM.svg\" width=\"200\">\n                    <p><span class=\"redText\">Bad choice,</span> the bee was friendly.<br>Your bonus pay is unchanged, and remains at $0.44.</p>\n            ","response":0,"trial_type":"html-button-response","trial_index":42,"time_elapsed":225064,"internal_node_id":"0.0-4.0-1.15","subject_id":"5f4e97aae4fe380a7bad99c7","study_id":"6197b3f67c2b5cd3b6d9596a","session_id":"619be320cb0ea57f85b54834","condition":"full-information","relevant_dimensions":["pattern","legs"],"bee_group":{"antennae":"X","wings":"X","pattern":"D","legs":"M"},"bonus":1.5800000000000012},{"rt":1943,"stimulus":"bees-with-color/bee-B1SM.svg","response":0,"trial_type":"image-button-response","trial_index":43,"time_elapsed":227010,"internal_node_id":"0.0-4.0-0.16","subject_id":"5f4e97aae4fe380a7bad99c7","study_id":"6197b3f67c2b5cd3b6d9596a","session_id":"619be320cb0ea57f85b54834","condition":"full-information","relevant_dimensions":["pattern","legs"],"bee_group":{"antennae":"X","wings":"X","pattern":"D","legs":"M"},"action":"harvest","summary":"good-harvest","bonus":1.5800000000000012},{"rt":704.6999999880791,"stimulus":"\n                    <p><b>Action: <em>harvest</em></b></p>\n                    <p>This is the bee that you just saw.</p>\n                    <img src=\"bees-with-color/bee-B1SM.svg\" width=\"200\">\n                    <p><span class=\"greenText\"><b>Successful harvest!</b></span><br>Your pay has increased by $0.02. Your bonus pay is now $0.46.</p>\n            ","response":0,"trial_type":"html-button-response","trial_index":44,"time_elapsed":227718,"internal_node_id":"0.0-4.0-1.16","subject_id":"5f4e97aae4fe380a7bad99c7","study_id":"6197b3f67c2b5cd3b6d9596a","session_id":"619be320cb0ea57f85b54834","condition":"full-information","relevant_dimensions":["pattern","legs"],"bee_group":{"antennae":"X","wings":"X","pattern":"D","legs":"M"},"bonus":1.5800000000000012},{"rt":1119.9000000357628,"stimulus":"bees-with-color/bee-A1DF.svg","response":1,"trial_type":"image-button-response","trial_index":45,"time_elapsed":228840,"internal_node_id":"0.0-4.0-0.17","subject_id":"5f4e97aae4fe380a7bad99c7","study_id":"6197b3f67c2b5cd3b6d9596a","session_id":"619be320cb0ea57f85b54834","condition":"full-information","relevant_dimensions":["pattern","legs"],"bee_group":{"antennae":"X","wings":"X","pattern":"D","legs":"M"},"action":"avoid","summary":"bad-avoid","bonus":1.5800000000000012},{"rt":677.5,"stimulus":"\n                    <p><b>Action: <em>avoid</em></b></p>\n                    <p>This is the bee that you just saw.</p>\n                    <img src=\"bees-with-color/bee-A1DF.svg\" width=\"200\">\n                    <p><span class=\"redText\">Bad choice,</span> the bee was friendly.<br>Your bonus pay is unchanged, and remains at $0.46.</p>\n            ","response":0,"trial_type":"html-button-response","trial_index":46,"time_elapsed":229520,"internal_node_id":"0.0-4.0-1.17","subject_id":"5f4e97aae4fe380a7bad99c7","study_id":"6197b3f67c2b5cd3b6d9596a","session_id":"619be320cb0ea57f85b54834","condition":"full-information","relevant_dimensions":["pattern","legs"],"bee_group":{"antennae":"X","wings":"X","pattern":"D","legs":"M"},"bonus":1.5800000000000012},{"rt":1084.300000011921,"stimulus":"bees-with-color/bee-A2SF.svg","response":0,"trial_type":"image-button-response","trial_index":47,"time_elapsed":230607,"internal_node_id":"0.0-4.0-0.18","subject_id":"5f4e97aae4fe380a7bad99c7","study_id":"6197b3f67c2b5cd3b6d9596a","session_id":"619be320cb0ea57f85b54834","condition":"full-information","relevant_dimensions":["pattern","legs"],"bee_group":{"antennae":"X","wings":"X","pattern":"D","legs":"M"},"action":"harvest","summary":"good-harvest","bonus":1.5800000000000012},{"rt":648.1999999880791,"stimulus":"\n                    <p><b>Action: <em>harvest</em></b></p>\n                    <p>This is the bee that you just saw.</p>\n                    <img src=\"bees-with-color/bee-A2SF.svg\" width=\"200\">\n                    <p><span class=\"greenText\"><b>Successful harvest!</b></span><br>Your pay has increased by $0.02. Your bonus pay is now $0.48.</p>\n            ","response":0,"trial_type":"html-button-response","trial_index":48,"time_elapsed":231258,"internal_node_id":"0.0-4.0-1.18","subject_id":"5f4e97aae4fe380a7bad99c7","study_id":"6197b3f67c2b5cd3b6d9596a","session_id":"619be320cb0ea57f85b54834","condition":"full-information","relevant_dimensions":["pattern","legs"],"bee_group":{"antennae":"X","wings":"X","pattern":"D","legs":"M"},"bonus":1.5800000000000012},{"rt":1076.800000011921,"stimulus":"bees-with-color/bee-A1SM.svg","response":0,"trial_type":"image-button-response","trial_index":49,"time_elapsed":232338,"internal_node_id":"0.0-4.0-0.19","subject_id":"5f4e97aae4fe380a7bad99c7","study_id":"6197b3f67c2b5cd3b6d9596a","session_id":"619be320cb0ea57f85b54834","condition":"full-information","relevant_dimensions":["pattern","legs"],"bee_group":{"antennae":"X","wings":"X","pattern":"D","legs":"M"},"action":"harvest","summary":"good-harvest","bonus":1.5800000000000012},{"rt":676.3000000119209,"stimulus":"\n                    <p><b>Action: <em>harvest</em></b></p>\n                    <p>This is the bee that you just saw.</p>\n                    <img src=\"bees-with-color/bee-A1SM.svg\" width=\"200\">\n                    <p><span class=\"greenText\"><b>Successful harvest!</b></span><br>Your pay has increased by $0.02. Your bonus pay is now $0.50.</p>\n            ","response":0,"trial_type":"html-button-response","trial_index":50,"time_elapsed":233017,"internal_node_id":"0.0-4.0-1.19","subject_id":"5f4e97aae4fe380a7bad99c7","study_id":"6197b3f67c2b5cd3b6d9596a","session_id":"619be320cb0ea57f85b54834","condition":"full-information","relevant_dimensions":["pattern","legs"],"bee_group":{"antennae":"X","wings":"X","pattern":"D","legs":"M"},"bonus":1.5800000000000012},{"rt":935.6000000238419,"stimulus":"bees-with-color/bee-B2SF.svg","response":0,"trial_type":"image-button-response","trial_index":51,"time_elapsed":233955,"internal_node_id":"0.0-4.0-0.20","subject_id":"5f4e97aae4fe380a7bad99c7","study_id":"6197b3f67c2b5cd3b6d9596a","session_id":"619be320cb0ea57f85b54834","condition":"full-information","relevant_dimensions":["pattern","legs"],"bee_group":{"antennae":"X","wings":"X","pattern":"D","legs":"M"},"action":"harvest","summary":"good-harvest","bonus":1.5800000000000012},{"rt":1098.699999988079,"stimulus":"\n                    <p><b>Action: <em>harvest</em></b></p>\n                    <p>This is the bee that you just saw.</p>\n                    <img src=\"bees-with-color/bee-B2SF.svg\" width=\"200\">\n                    <p><span class=\"greenText\"><b>Successful harvest!</b></span><br>Your pay has increased by $0.02. Your bonus pay is now $0.52.</p>\n            ","response":0,"trial_type":"html-button-response","trial_index":52,"time_elapsed":235056,"internal_node_id":"0.0-4.0-1.20","subject_id":"5f4e97aae4fe380a7bad99c7","study_id":"6197b3f67c2b5cd3b6d9596a","session_id":"619be320cb0ea57f85b54834","condition":"full-information","relevant_dimensions":["pattern","legs"],"bee_group":{"antennae":"X","wings":"X","pattern":"D","legs":"M"},"bonus":1.5800000000000012},{"rt":3301,"stimulus":"bees-with-color/bee-B1SF.svg","response":1,"trial_type":"image-button-response","trial_index":53,"time_elapsed":238360,"internal_node_id":"0.0-4.0-0.21","subject_id":"5f4e97aae4fe380a7bad99c7","study_id":"6197b3f67c2b5cd3b6d9596a","session_id":"619be320cb0ea57f85b54834","condition":"full-information","relevant_dimensions":["pattern","legs"],"bee_group":{"antennae":"X","wings":"X","pattern":"D","legs":"M"},"action":"avoid","summary":"bad-avoid","bonus":1.5800000000000012},{"rt":798,"stimulus":"\n                    <p><b>Action: <em>avoid</em></b></p>\n                    <p>This is the bee that you just saw.</p>\n                    <img src=\"bees-with-color/bee-B1SF.svg\" width=\"200\">\n                    <p><span class=\"redText\">Bad choice,</span> the bee was friendly.<br>Your bonus pay is unchanged, and remains at $0.52.</p>\n            ","response":0,"trial_type":"html-button-response","trial_index":54,"time_elapsed":239160,"internal_node_id":"0.0-4.0-1.21","subject_id":"5f4e97aae4fe380a7bad99c7","study_id":"6197b3f67c2b5cd3b6d9596a","session_id":"619be320cb0ea57f85b54834","condition":"full-information","relevant_dimensions":["pattern","legs"],"bee_group":{"antennae":"X","wings":"X","pattern":"D","legs":"M"},"bonus":1.5800000000000012},{"rt":1034.4000000357628,"stimulus":"bees-with-color/bee-B2DM.svg","response":1,"trial_type":"image-button-response","trial_index":55,"time_elapsed":240198,"internal_node_id":"0.0-4.0-0.22","subject_id":"5f4e97aae4fe380a7bad99c7","study_id":"6197b3f67c2b5cd3b6d9596a","session_id":"619be320cb0ea57f85b54834","condition":"full-information","relevant_dimensions":["pattern","legs"],"bee_group":{"antennae":"X","wings":"X","pattern":"D","legs":"M"},"action":"avoid","summary":"good-avoid","bonus":1.5800000000000012},{"rt":698.8999999761581,"stimulus":"\n                    <p><b>Action: <em>avoid</em></b></p>\n                    <p>This is the bee that you just saw.</p>\n                    <img src=\"bees-with-color/bee-B2DM.svg\" width=\"200\">\n                    <p><span class=\"greenText\">Good choice!</span>  This bee would have stung you.<br>Your bonus pay is unchanged, and remains at $0.52.</p>\n            ","response":0,"trial_type":"html-button-response","trial_index":56,"time_elapsed":240899,"internal_node_id":"0.0-4.0-1.22","subject_id":"5f4e97aae4fe380a7bad99c7","study_id":"6197b3f67c2b5cd3b6d9596a","session_id":"619be320cb0ea57f85b54834","condition":"full-information","relevant_dimensions":["pattern","legs"],"bee_group":{"antennae":"X","wings":"X","pattern":"D","legs":"M"},"bonus":1.5800000000000012},{"rt":999.1000000238419,"stimulus":"bees-with-color/bee-A1DM.svg","response":1,"trial_type":"image-button-response","trial_index":57,"time_elapsed":241900,"internal_node_id":"0.0-4.0-0.23","subject_id":"5f4e97aae4fe380a7bad99c7","study_id":"6197b3f67c2b5cd3b6d9596a","session_id":"619be320cb0ea57f85b54834","condition":"full-information","relevant_dimensions":["pattern","legs"],"bee_group":{"antennae":"X","wings":"X","pattern":"D","legs":"M"},"action":"avoid","summary":"good-avoid","bonus":1.5800000000000012},{"rt":698.4000000357628,"stimulus":"\n                    <p><b>Action: <em>avoid</em></b></p>\n                    <p>This is the bee that you just saw.</p>\n                    <img src=\"bees-with-color/bee-A1DM.svg\" width=\"200\">\n                    <p><span class=\"greenText\">Good choice!</span>  This bee would have stung you.<br>Your bonus pay is unchanged, and remains at $0.52.</p>\n            ","response":0,"trial_type":"html-button-response","trial_index":58,"time_elapsed":242600,"internal_node_id":"0.0-4.0-1.23","subject_id":"5f4e97aae4fe380a7bad99c7","study_id":"6197b3f67c2b5cd3b6d9596a","session_id":"619be320cb0ea57f85b54834","condition":"full-information","relevant_dimensions":["pattern","legs"],"bee_group":{"antennae":"X","wings":"X","pattern":"D","legs":"M"},"bonus":1.5800000000000012},{"rt":1063.5,"stimulus":"bees-with-color/bee-A2DM.svg","response":1,"trial_type":"image-button-response","trial_index":59,"time_elapsed":243666,"internal_node_id":"0.0-4.0-0.24","subject_id":"5f4e97aae4fe380a7bad99c7","study_id":"6197b3f67c2b5cd3b6d9596a","session_id":"619be320cb0ea57f85b54834","condition":"full-information","relevant_dimensions":["pattern","legs"],"bee_group":{"antennae":"X","wings":"X","pattern":"D","legs":"M"},"action":"avoid","summary":"good-avoid","bonus":1.5800000000000012},{"rt":620.1999999880791,"stimulus":"\n                    <p><b>Action: <em>avoid</em></b></p>\n                    <p>This is the bee that you just saw.</p>\n                    <img src=\"bees-with-color/bee-A2DM.svg\" width=\"200\">\n                    <p><span class=\"greenText\">Good choice!</span>  This bee would have stung you.<br>Your bonus pay is unchanged, and remains at $0.52.</p>\n            ","response":0,"trial_type":"html-button-response","trial_index":60,"time_elapsed":244289,"internal_node_id":"0.0-4.0-1.24","subject_id":"5f4e97aae4fe380a7bad99c7","study_id":"6197b3f67c2b5cd3b6d9596a","session_id":"619be320cb0ea57f85b54834","condition":"full-information","relevant_dimensions":["pattern","legs"],"bee_group":{"antennae":"X","wings":"X","pattern":"D","legs":"M"},"bonus":1.5800000000000012},{"rt":991.7000000476837,"stimulus":"bees-with-color/bee-B1DM.svg","response":1,"trial_type":"image-button-response","trial_index":61,"time_elapsed":245283,"internal_node_id":"0.0-4.0-0.25","subject_id":"5f4e97aae4fe380a7bad99c7","study_id":"6197b3f67c2b5cd3b6d9596a","session_id":"619be320cb0ea57f85b54834","condition":"full-information","relevant_dimensions":["pattern","legs"],"bee_group":{"antennae":"X","wings":"X","pattern":"D","legs":"M"},"action":"avoid","summary":"good-avoid","bonus":1.5800000000000012},{"rt":620.1000000238419,"stimulus":"\n                    <p><b>Action: <em>avoid</em></b></p>\n                    <p>This is the bee that you just saw.</p>\n                    <img src=\"bees-with-color/bee-B1DM.svg\" width=\"200\">\n                    <p><span class=\"greenText\">Good choice!</span>  This bee would have stung you.<br>Your bonus pay is unchanged, and remains at $0.52.</p>\n            ","response":0,"trial_type":"html-button-response","trial_index":62,"time_elapsed":245905,"internal_node_id":"0.0-4.0-1.25","subject_id":"5f4e97aae4fe380a7bad99c7","study_id":"6197b3f67c2b5cd3b6d9596a","session_id":"619be320cb0ea57f85b54834","condition":"full-information","relevant_dimensions":["pattern","legs"],"bee_group":{"antennae":"X","wings":"X","pattern":"D","legs":"M"},"bonus":1.5800000000000012},{"rt":863.4000000357628,"stimulus":"bees-with-color/bee-B2DF.svg","response":0,"trial_type":"image-button-response","trial_index":63,"time_elapsed":246770,"internal_node_id":"0.0-4.0-0.26","subject_id":"5f4e97aae4fe380a7bad99c7","study_id":"6197b3f67c2b5cd3b6d9596a","session_id":"619be320cb0ea57f85b54834","condition":"full-information","relevant_dimensions":["pattern","legs"],"bee_group":{"antennae":"X","wings":"X","pattern":"D","legs":"M"},"action":"harvest","summary":"good-harvest","bonus":1.5800000000000012},{"rt":769.9000000357628,"stimulus":"\n                    <p><b>Action: <em>harvest</em></b></p>\n                    <p>This is the bee that you just saw.</p>\n                    <img src=\"bees-with-color/bee-B2DF.svg\" width=\"200\">\n                    <p><span class=\"greenText\"><b>Successful harvest!</b></span><br>Your pay has increased by $0.02. Your bonus pay is now $0.54.</p>\n            ","response":0,"trial_type":"html-button-response","trial_index":64,"time_elapsed":247543,"internal_node_id":"0.0-4.0-1.26","subject_id":"5f4e97aae4fe380a7bad99c7","study_id":"6197b3f67c2b5cd3b6d9596a","session_id":"619be320cb0ea57f85b54834","condition":"full-information","relevant_dimensions":["pattern","legs"],"bee_group":{"antennae":"X","wings":"X","pattern":"D","legs":"M"},"bonus":1.5800000000000012},{"rt":948.8000000119209,"stimulus":"bees-with-color/bee-A2SM.svg","response":1,"trial_type":"image-button-response","trial_index":65,"time_elapsed":248494,"internal_node_id":"0.0-4.0-0.27","subject_id":"5f4e97aae4fe380a7bad99c7","study_id":"6197b3f67c2b5cd3b6d9596a","session_id":"619be320cb0ea57f85b54834","condition":"full-information","relevant_dimensions":["pattern","legs"],"bee_group":{"antennae":"X","wings":"X","pattern":"D","legs":"M"},"action":"avoid","summary":"bad-avoid","bonus":1.5800000000000012},{"rt":1184.7000000476837,"stimulus":"\n                    <p><b>Action: <em>avoid</em></b></p>\n                    <p>This is the bee that you just saw.</p>\n                    <img src=\"bees-with-color/bee-A2SM.svg\" width=\"200\">\n                    <p><span class=\"redText\">Bad choice,</span> the bee was friendly.<br>Your bonus pay is unchanged, and remains at $0.54.</p>\n            ","response":0,"trial_type":"html-button-response","trial_index":66,"time_elapsed":249681,"internal_node_id":"0.0-4.0-1.27","subject_id":"5f4e97aae4fe380a7bad99c7","study_id":"6197b3f67c2b5cd3b6d9596a","session_id":"619be320cb0ea57f85b54834","condition":"full-information","relevant_dimensions":["pattern","legs"],"bee_group":{"antennae":"X","wings":"X","pattern":"D","legs":"M"},"bonus":1.5800000000000012},{"rt":1185.1000000238419,"stimulus":"bees-with-color/bee-B1DF.svg","response":0,"trial_type":"image-button-response","trial_index":67,"time_elapsed":250869,"internal_node_id":"0.0-4.0-0.28","subject_id":"5f4e97aae4fe380a7bad99c7","study_id":"6197b3f67c2b5cd3b6d9596a","session_id":"619be320cb0ea57f85b54834","condition":"full-information","relevant_dimensions":["pattern","legs"],"bee_group":{"antennae":"X","wings":"X","pattern":"D","legs":"M"},"action":"harvest","summary":"good-harvest","bonus":1.5800000000000012},{"rt":620.3000000119209,"stimulus":"\n                    <p><b>Action: <em>harvest</em></b></p>\n                    <p>This is the bee that you just saw.</p>\n                    <img src=\"bees-with-color/bee-B1DF.svg\" width=\"200\">\n                    <p><span class=\"greenText\"><b>Successful harvest!</b></span><br>Your pay has increased by $0.02. Your bonus pay is now $0.56.</p>\n            ","response":0,"trial_type":"html-button-response","trial_index":68,"time_elapsed":251491,"internal_node_id":"0.0-4.0-1.28","subject_id":"5f4e97aae4fe380a7bad99c7","study_id":"6197b3f67c2b5cd3b6d9596a","session_id":"619be320cb0ea57f85b54834","condition":"full-information","relevant_dimensions":["pattern","legs"],"bee_group":{"antennae":"X","wings":"X","pattern":"D","legs":"M"},"bonus":1.5800000000000012},{"rt":1126.9000000357628,"stimulus":"bees-with-color/bee-B2SM.svg","response":0,"trial_type":"image-button-response","trial_index":69,"time_elapsed":252620,"internal_node_id":"0.0-4.0-0.29","subject_id":"5f4e97aae4fe380a7bad99c7","study_id":"6197b3f67c2b5cd3b6d9596a","session_id":"619be320cb0ea57f85b54834","condition":"full-information","relevant_dimensions":["pattern","legs"],"bee_group":{"antennae":"X","wings":"X","pattern":"D","legs":"M"},"action":"harvest","summary":"good-harvest","bonus":1.5800000000000012},{"rt":663.3000000119209,"stimulus":"\n                    <p><b>Action: <em>harvest</em></b></p>\n                    <p>This is the bee that you just saw.</p>\n                    <img src=\"bees-with-color/bee-B2SM.svg\" width=\"200\">\n                    <p><span class=\"greenText\"><b>Successful harvest!</b></span><br>Your pay has increased by $0.02. Your bonus pay is now $0.58.</p>\n            ","response":0,"trial_type":"html-button-response","trial_index":70,"time_elapsed":253286,"internal_node_id":"0.0-4.0-1.29","subject_id":"5f4e97aae4fe380a7bad99c7","study_id":"6197b3f67c2b5cd3b6d9596a","session_id":"619be320cb0ea57f85b54834","condition":"full-information","relevant_dimensions":["pattern","legs"],"bee_group":{"antennae":"X","wings":"X","pattern":"D","legs":"M"},"bonus":1.5800000000000012},{"rt":1277.800000011921,"stimulus":"bees-with-color/bee-A2DF.svg","response":0,"trial_type":"image-button-response","trial_index":71,"time_elapsed":254566,"internal_node_id":"0.0-4.0-0.30","subject_id":"5f4e97aae4fe380a7bad99c7","study_id":"6197b3f67c2b5cd3b6d9596a","session_id":"619be320cb0ea57f85b54834","condition":"full-information","relevant_dimensions":["pattern","legs"],"bee_group":{"antennae":"X","wings":"X","pattern":"D","legs":"M"},"action":"harvest","summary":"good-harvest","bonus":1.5800000000000012},{"rt":670,"stimulus":"\n                    <p><b>Action: <em>harvest</em></b></p>\n                    <p>This is the bee that you just saw.</p>\n                    <img src=\"bees-with-color/bee-A2DF.svg\" width=\"200\">\n                    <p><span class=\"greenText\"><b>Successful harvest!</b></span><br>Your pay has increased by $0.02. Your bonus pay is now $0.60.</p>\n            ","response":0,"trial_type":"html-button-response","trial_index":72,"time_elapsed":255238,"internal_node_id":"0.0-4.0-1.30","subject_id":"5f4e97aae4fe380a7bad99c7","study_id":"6197b3f67c2b5cd3b6d9596a","session_id":"619be320cb0ea57f85b54834","condition":"full-information","relevant_dimensions":["pattern","legs"],"bee_group":{"antennae":"X","wings":"X","pattern":"D","legs":"M"},"bonus":1.5800000000000012},{"rt":907.9000000357628,"stimulus":"bees-with-color/bee-A1SF.svg","response":0,"trial_type":"image-button-response","trial_index":73,"time_elapsed":256148,"internal_node_id":"0.0-4.0-0.31","subject_id":"5f4e97aae4fe380a7bad99c7","study_id":"6197b3f67c2b5cd3b6d9596a","session_id":"619be320cb0ea57f85b54834","condition":"full-information","relevant_dimensions":["pattern","legs"],"bee_group":{"antennae":"X","wings":"X","pattern":"D","legs":"M"},"action":"harvest","summary":"good-harvest","bonus":1.5800000000000012},{"rt":619.5,"stimulus":"\n                    <p><b>Action: <em>harvest</em></b></p>\n                    <p>This is the bee that you just saw.</p>\n                    <img src=\"bees-with-color/bee-A1SF.svg\" width=\"200\">\n                    <p><span class=\"greenText\"><b>Successful harvest!</b></span><br>Your pay has increased by $0.02. Your bonus pay is now $0.62.</p>\n            ","response":0,"trial_type":"html-button-response","trial_index":74,"time_elapsed":256769,"internal_node_id":"0.0-4.0-1.31","subject_id":"5f4e97aae4fe380a7bad99c7","study_id":"6197b3f67c2b5cd3b6d9596a","session_id":"619be320cb0ea57f85b54834","condition":"full-information","relevant_dimensions":["pattern","legs"],"bee_group":{"antennae":"X","wings":"X","pattern":"D","legs":"M"},"bonus":1.5800000000000012},{"rt":613,"stimulus":"bees-with-color/bee-B2SF.svg","response":0,"trial_type":"image-button-response","trial_index":75,"time_elapsed":257384,"internal_node_id":"0.0-4.0-0.32","subject_id":"5f4e97aae4fe380a7bad99c7","study_id":"6197b3f67c2b5cd3b6d9596a","session_id":"619be320cb0ea57f85b54834","condition":"full-information","relevant_dimensions":["pattern","legs"],"bee_group":{"antennae":"X","wings":"X","pattern":"D","legs":"M"},"action":"harvest","summary":"good-harvest","bonus":1.5800000000000012},{"rt":676.3000000119209,"stimulus":"\n                    <p><b>Action: <em>harvest</em></b></p>\n                    <p>This is the bee that you just saw.</p>\n                    <img src=\"bees-with-color/bee-B2SF.svg\" width=\"200\">\n                    <p><span class=\"greenText\"><b>Successful harvest!</b></span><br>Your pay has increased by $0.02. Your bonus pay is now $0.64.</p>\n            ","response":0,"trial_type":"html-button-response","trial_index":76,"time_elapsed":258063,"internal_node_id":"0.0-4.0-1.32","subject_id":"5f4e97aae4fe380a7bad99c7","study_id":"6197b3f67c2b5cd3b6d9596a","session_id":"619be320cb0ea57f85b54834","condition":"full-information","relevant_dimensions":["pattern","legs"],"bee_group":{"antennae":"X","wings":"X","pattern":"D","legs":"M"},"bonus":1.5800000000000012},{"rt":1348.699999988079,"stimulus":"bees-with-color/bee-B1SM.svg","response":0,"trial_type":"image-button-response","trial_index":77,"time_elapsed":259414,"internal_node_id":"0.0-4.0-0.33","subject_id":"5f4e97aae4fe380a7bad99c7","study_id":"6197b3f67c2b5cd3b6d9596a","session_id":"619be320cb0ea57f85b54834","condition":"full-information","relevant_dimensions":["pattern","legs"],"bee_group":{"antennae":"X","wings":"X","pattern":"D","legs":"M"},"action":"harvest","summary":"good-harvest","bonus":1.5800000000000012},{"rt":629.1000000238419,"stimulus":"\n                    <p><b>Action: <em>harvest</em></b></p>\n                    <p>This is the bee that you just saw.</p>\n                    <img src=\"bees-with-color/bee-B1SM.svg\" width=\"200\">\n                    <p><span class=\"greenText\"><b>Successful harvest!</b></span><br>Your pay has increased by $0.02. Your bonus pay is now $0.66.</p>\n            ","response":0,"trial_type":"html-button-response","trial_index":78,"time_elapsed":260045,"internal_node_id":"0.0-4.0-1.33","subject_id":"5f4e97aae4fe380a7bad99c7","study_id":"6197b3f67c2b5cd3b6d9596a","session_id":"619be320cb0ea57f85b54834","condition":"full-information","relevant_dimensions":["pattern","legs"],"bee_group":{"antennae":"X","wings":"X","pattern":"D","legs":"M"},"bonus":1.5800000000000012},{"rt":1263.6000000238419,"stimulus":"bees-with-color/bee-A2DM.svg","response":1,"trial_type":"image-button-response","trial_index":79,"time_elapsed":261311,"internal_node_id":"0.0-4.0-0.34","subject_id":"5f4e97aae4fe380a7bad99c7","study_id":"6197b3f67c2b5cd3b6d9596a","session_id":"619be320cb0ea57f85b54834","condition":"full-information","relevant_dimensions":["pattern","legs"],"bee_group":{"antennae":"X","wings":"X","pattern":"D","legs":"M"},"action":"avoid","summary":"good-avoid","bonus":1.5800000000000012},{"rt":741.1999999880791,"stimulus":"\n                    <p><b>Action: <em>avoid</em></b></p>\n                    <p>This is the bee that you just saw.</p>\n                    <img src=\"bees-with-color/bee-A2DM.svg\" width=\"200\">\n                    <p><span class=\"greenText\">Good choice!</span>  This bee would have stung you.<br>Your bonus pay is unchanged, and remains at $0.66.</p>\n            ","response":0,"trial_type":"html-button-response","trial_index":80,"time_elapsed":262055,"internal_node_id":"0.0-4.0-1.34","subject_id":"5f4e97aae4fe380a7bad99c7","study_id":"6197b3f67c2b5cd3b6d9596a","session_id":"619be320cb0ea57f85b54834","condition":"full-information","relevant_dimensions":["pattern","legs"],"bee_group":{"antennae":"X","wings":"X","pattern":"D","legs":"M"},"bonus":1.5800000000000012},{"rt":1213.3999999761581,"stimulus":"bees-with-color/bee-A2SF.svg","response":0,"trial_type":"image-button-response","trial_index":81,"time_elapsed":263271,"internal_node_id":"0.0-4.0-0.35","subject_id":"5f4e97aae4fe380a7bad99c7","study_id":"6197b3f67c2b5cd3b6d9596a","session_id":"619be320cb0ea57f85b54834","condition":"full-information","relevant_dimensions":["pattern","legs"],"bee_group":{"antennae":"X","wings":"X","pattern":"D","legs":"M"},"action":"harvest","summary":"good-harvest","bonus":1.5800000000000012},{"rt":683.5,"stimulus":"\n                    <p><b>Action: <em>harvest</em></b></p>\n                    <p>This is the bee that you just saw.</p>\n                    <img src=\"bees-with-color/bee-A2SF.svg\" width=\"200\">\n                    <p><span class=\"greenText\"><b>Successful harvest!</b></span><br>Your pay has increased by $0.02. Your bonus pay is now $0.68.</p>\n            ","response":0,"trial_type":"html-button-response","trial_index":82,"time_elapsed":263957,"internal_node_id":"0.0-4.0-1.35","subject_id":"5f4e97aae4fe380a7bad99c7","study_id":"6197b3f67c2b5cd3b6d9596a","session_id":"619be320cb0ea57f85b54834","condition":"full-information","relevant_dimensions":["pattern","legs"],"bee_group":{"antennae":"X","wings":"X","pattern":"D","legs":"M"},"bonus":1.5800000000000012},{"rt":870.2999999523163,"stimulus":"bees-with-color/bee-B1DF.svg","response":0,"trial_type":"image-button-response","trial_index":83,"time_elapsed":264830,"internal_node_id":"0.0-4.0-0.36","subject_id":"5f4e97aae4fe380a7bad99c7","study_id":"6197b3f67c2b5cd3b6d9596a","session_id":"619be320cb0ea57f85b54834","condition":"full-information","relevant_dimensions":["pattern","legs"],"bee_group":{"antennae":"X","wings":"X","pattern":"D","legs":"M"},"action":"harvest","summary":"good-harvest","bonus":1.5800000000000012},{"rt":562.3000000119209,"stimulus":"\n                    <p><b>Action: <em>harvest</em></b></p>\n                    <p>This is the bee that you just saw.</p>\n                    <img src=\"bees-with-color/bee-B1DF.svg\" width=\"200\">\n                    <p><span class=\"greenText\"><b>Successful harvest!</b></span><br>Your pay has increased by $0.02. Your bonus pay is now $0.70.</p>\n            ","response":0,"trial_type":"html-button-response","trial_index":84,"time_elapsed":265395,"internal_node_id":"0.0-4.0-1.36","subject_id":"5f4e97aae4fe380a7bad99c7","study_id":"6197b3f67c2b5cd3b6d9596a","session_id":"619be320cb0ea57f85b54834","condition":"full-information","relevant_dimensions":["pattern","legs"],"bee_group":{"antennae":"X","wings":"X","pattern":"D","legs":"M"},"bonus":1.5800000000000012},{"rt":1084.5,"stimulus":"bees-with-color/bee-B2SM.svg","response":0,"trial_type":"image-button-response","trial_index":85,"time_elapsed":266482,"internal_node_id":"0.0-4.0-0.37","subject_id":"5f4e97aae4fe380a7bad99c7","study_id":"6197b3f67c2b5cd3b6d9596a","session_id":"619be320cb0ea57f85b54834","condition":"full-information","relevant_dimensions":["pattern","legs"],"bee_group":{"antennae":"X","wings":"X","pattern":"D","legs":"M"},"action":"harvest","summary":"good-harvest","bonus":1.5800000000000012},{"rt":597.5,"stimulus":"\n                    <p><b>Action: <em>harvest</em></b></p>\n                    <p>This is the bee that you just saw.</p>\n                    <img src=\"bees-with-color/bee-B2SM.svg\" width=\"200\">\n                    <p><span class=\"greenText\"><b>Successful harvest!</b></span><br>Your pay has increased by $0.02. Your bonus pay is now $0.72.</p>\n            ","response":0,"trial_type":"html-button-response","trial_index":86,"time_elapsed":267082,"internal_node_id":"0.0-4.0-1.37","subject_id":"5f4e97aae4fe380a7bad99c7","study_id":"6197b3f67c2b5cd3b6d9596a","session_id":"619be320cb0ea57f85b54834","condition":"full-information","relevant_dimensions":["pattern","legs"],"bee_group":{"antennae":"X","wings":"X","pattern":"D","legs":"M"},"bonus":1.5800000000000012},{"rt":1071.699999988079,"stimulus":"bees-with-color/bee-A1DM.svg","response":1,"trial_type":"image-button-response","trial_index":87,"time_elapsed":268156,"internal_node_id":"0.0-4.0-0.38","subject_id":"5f4e97aae4fe380a7bad99c7","study_id":"6197b3f67c2b5cd3b6d9596a","session_id":"619be320cb0ea57f85b54834","condition":"full-information","relevant_dimensions":["pattern","legs"],"bee_group":{"antennae":"X","wings":"X","pattern":"D","legs":"M"},"action":"avoid","summary":"good-avoid","bonus":1.5800000000000012},{"rt":2294.899999976158,"stimulus":"\n                    <p><b>Action: <em>avoid</em></b></p>\n                    <p>This is the bee that you just saw.</p>\n                    <img src=\"bees-with-color/bee-A1DM.svg\" width=\"200\">\n                    <p><span class=\"greenText\">Good choice!</span>  This bee would have stung you.<br>Your bonus pay is unchanged, and remains at $0.72.</p>\n            ","response":0,"trial_type":"html-button-response","trial_index":88,"time_elapsed":270454,"internal_node_id":"0.0-4.0-1.38","subject_id":"5f4e97aae4fe380a7bad99c7","study_id":"6197b3f67c2b5cd3b6d9596a","session_id":"619be320cb0ea57f85b54834","condition":"full-information","relevant_dimensions":["pattern","legs"],"bee_group":{"antennae":"X","wings":"X","pattern":"D","legs":"M"},"bonus":1.5800000000000012},{"rt":983.3999999761581,"stimulus":"bees-with-color/bee-A2DF.svg","response":0,"trial_type":"image-button-response","trial_index":89,"time_elapsed":271439,"internal_node_id":"0.0-4.0-0.39","subject_id":"5f4e97aae4fe380a7bad99c7","study_id":"6197b3f67c2b5cd3b6d9596a","session_id":"619be320cb0ea57f85b54834","condition":"full-information","relevant_dimensions":["pattern","legs"],"bee_group":{"antennae":"X","wings":"X","pattern":"D","legs":"M"},"action":"harvest","summary":"good-harvest","bonus":1.5800000000000012},{"rt":626.4000000357628,"stimulus":"\n                    <p><b>Action: <em>harvest</em></b></p>\n                    <p>This is the bee that you just saw.</p>\n                    <img src=\"bees-with-color/bee-A2DF.svg\" width=\"200\">\n                    <p><span class=\"greenText\"><b>Successful harvest!</b></span><br>Your pay has increased by $0.02. Your bonus pay is now $0.74.</p>\n            ","response":0,"trial_type":"html-button-response","trial_index":90,"time_elapsed":272068,"internal_node_id":"0.0-4.0-1.39","subject_id":"5f4e97aae4fe380a7bad99c7","study_id":"6197b3f67c2b5cd3b6d9596a","session_id":"619be320cb0ea57f85b54834","condition":"full-information","relevant_dimensions":["pattern","legs"],"bee_group":{"antennae":"X","wings":"X","pattern":"D","legs":"M"},"bonus":1.5800000000000012},{"rt":1170.3999999761581,"stimulus":"bees-with-color/bee-A1SM.svg","response":0,"trial_type":"image-button-response","trial_index":91,"time_elapsed":273241,"internal_node_id":"0.0-4.0-0.40","subject_id":"5f4e97aae4fe380a7bad99c7","study_id":"6197b3f67c2b5cd3b6d9596a","session_id":"619be320cb0ea57f85b54834","condition":"full-information","relevant_dimensions":["pattern","legs"],"bee_group":{"antennae":"X","wings":"X","pattern":"D","legs":"M"},"action":"harvest","summary":"good-harvest","bonus":1.5800000000000012},{"rt":618.8000000119209,"stimulus":"\n                    <p><b>Action: <em>harvest</em></b></p>\n                    <p>This is the bee that you just saw.</p>\n                    <img src=\"bees-with-color/bee-A1SM.svg\" width=\"200\">\n                    <p><span class=\"greenText\"><b>Successful harvest!</b></span><br>Your pay has increased by $0.02. Your bonus pay is now $0.76.</p>\n            ","response":0,"trial_type":"html-button-response","trial_index":92,"time_elapsed":273862,"internal_node_id":"0.0-4.0-1.40","subject_id":"5f4e97aae4fe380a7bad99c7","study_id":"6197b3f67c2b5cd3b6d9596a","session_id":"619be320cb0ea57f85b54834","condition":"full-information","relevant_dimensions":["pattern","legs"],"bee_group":{"antennae":"X","wings":"X","pattern":"D","legs":"M"},"bonus":1.5800000000000012},{"rt":993,"stimulus":"bees-with-color/bee-B2DF.svg","response":0,"trial_type":"image-button-response","trial_index":93,"time_elapsed":274857,"internal_node_id":"0.0-4.0-0.41","subject_id":"5f4e97aae4fe380a7bad99c7","study_id":"6197b3f67c2b5cd3b6d9596a","session_id":"619be320cb0ea57f85b54834","condition":"full-information","relevant_dimensions":["pattern","legs"],"bee_group":{"antennae":"X","wings":"X","pattern":"D","legs":"M"},"action":"harvest","summary":"good-harvest","bonus":1.5800000000000012},{"rt":556.8000000119209,"stimulus":"\n                    <p><b>Action: <em>harvest</em></b></p>\n                    <p>This is the bee that you just saw.</p>\n                    <img src=\"bees-with-color/bee-B2DF.svg\" width=\"200\">\n                    <p><span class=\"greenText\"><b>Successful harvest!</b></span><br>Your pay has increased by $0.02. Your bonus pay is now $0.78.</p>\n            ","response":0,"trial_type":"html-button-response","trial_index":94,"time_elapsed":275416,"internal_node_id":"0.0-4.0-1.41","subject_id":"5f4e97aae4fe380a7bad99c7","study_id":"6197b3f67c2b5cd3b6d9596a","session_id":"619be320cb0ea57f85b54834","condition":"full-information","relevant_dimensions":["pattern","legs"],"bee_group":{"antennae":"X","wings":"X","pattern":"D","legs":"M"},"bonus":1.5800000000000012},{"rt":1097.9000000357628,"stimulus":"bees-with-color/bee-A2SM.svg","response":0,"trial_type":"image-button-response","trial_index":95,"time_elapsed":276516,"internal_node_id":"0.0-4.0-0.42","subject_id":"5f4e97aae4fe380a7bad99c7","study_id":"6197b3f67c2b5cd3b6d9596a","session_id":"619be320cb0ea57f85b54834","condition":"full-information","relevant_dimensions":["pattern","legs"],"bee_group":{"antennae":"X","wings":"X","pattern":"D","legs":"M"},"action":"harvest","summary":"good-harvest","bonus":1.5800000000000012},{"rt":598.9000000357628,"stimulus":"\n                    <p><b>Action: <em>harvest</em></b></p>\n                    <p>This is the bee that you just saw.</p>\n                    <img src=\"bees-with-color/bee-A2SM.svg\" width=\"200\">\n                    <p><span class=\"greenText\"><b>Successful harvest!</b></span><br>Your pay has increased by $0.02. Your bonus pay is now $0.80.</p>\n            ","response":0,"trial_type":"html-button-response","trial_index":96,"time_elapsed":277117,"internal_node_id":"0.0-4.0-1.42","subject_id":"5f4e97aae4fe380a7bad99c7","study_id":"6197b3f67c2b5cd3b6d9596a","session_id":"619be320cb0ea57f85b54834","condition":"full-information","relevant_dimensions":["pattern","legs"],"bee_group":{"antennae":"X","wings":"X","pattern":"D","legs":"M"},"bonus":1.5800000000000012},{"rt":1049.8999999761581,"stimulus":"bees-with-color/bee-A1DF.svg","response":0,"trial_type":"image-button-response","trial_index":97,"time_elapsed":278169,"internal_node_id":"0.0-4.0-0.43","subject_id":"5f4e97aae4fe380a7bad99c7","study_id":"6197b3f67c2b5cd3b6d9596a","session_id":"619be320cb0ea57f85b54834","condition":"full-information","relevant_dimensions":["pattern","legs"],"bee_group":{"antennae":"X","wings":"X","pattern":"D","legs":"M"},"action":"harvest","summary":"good-harvest","bonus":1.5800000000000012},{"rt":598,"stimulus":"\n                    <p><b>Action: <em>harvest</em></b></p>\n                    <p>This is the bee that you just saw.</p>\n                    <img src=\"bees-with-color/bee-A1DF.svg\" width=\"200\">\n                    <p><span class=\"greenText\"><b>Successful harvest!</b></span><br>Your pay has increased by $0.02. Your bonus pay is now $0.82.</p>\n            ","response":0,"trial_type":"html-button-response","trial_index":98,"time_elapsed":278769,"internal_node_id":"0.0-4.0-1.43","subject_id":"5f4e97aae4fe380a7bad99c7","study_id":"6197b3f67c2b5cd3b6d9596a","session_id":"619be320cb0ea57f85b54834","condition":"full-information","relevant_dimensions":["pattern","legs"],"bee_group":{"antennae":"X","wings":"X","pattern":"D","legs":"M"},"bonus":1.5800000000000012},{"rt":829.9000000357628,"stimulus":"bees-with-color/bee-A1SF.svg","response":0,"trial_type":"image-button-response","trial_index":99,"time_elapsed":279601,"internal_node_id":"0.0-4.0-0.44","subject_id":"5f4e97aae4fe380a7bad99c7","study_id":"6197b3f67c2b5cd3b6d9596a","session_id":"619be320cb0ea57f85b54834","condition":"full-information","relevant_dimensions":["pattern","legs"],"bee_group":{"antennae":"X","wings":"X","pattern":"D","legs":"M"},"action":"harvest","summary":"good-harvest","bonus":1.5800000000000012},{"rt":640.6999999880791,"stimulus":"\n                    <p><b>Action: <em>harvest</em></b></p>\n                    <p>This is the bee that you just saw.</p>\n                    <img src=\"bees-with-color/bee-A1SF.svg\" width=\"200\">\n                    <p><span class=\"greenText\"><b>Successful harvest!</b></span><br>Your pay has increased by $0.02. Your bonus pay is now $0.84.</p>\n            ","response":0,"trial_type":"html-button-response","trial_index":100,"time_elapsed":280243,"internal_node_id":"0.0-4.0-1.44","subject_id":"5f4e97aae4fe380a7bad99c7","study_id":"6197b3f67c2b5cd3b6d9596a","session_id":"619be320cb0ea57f85b54834","condition":"full-information","relevant_dimensions":["pattern","legs"],"bee_group":{"antennae":"X","wings":"X","pattern":"D","legs":"M"},"bonus":1.5800000000000012},{"rt":791,"stimulus":"bees-with-color/bee-B1SF.svg","response":0,"trial_type":"image-button-response","trial_index":101,"time_elapsed":281036,"internal_node_id":"0.0-4.0-0.45","subject_id":"5f4e97aae4fe380a7bad99c7","study_id":"6197b3f67c2b5cd3b6d9596a","session_id":"619be320cb0ea57f85b54834","condition":"full-information","relevant_dimensions":["pattern","legs"],"bee_group":{"antennae":"X","wings":"X","pattern":"D","legs":"M"},"action":"harvest","summary":"good-harvest","bonus":1.5800000000000012},{"rt":669.8999999761581,"stimulus":"\n                    <p><b>Action: <em>harvest</em></b></p>\n                    <p>This is the bee that you just saw.</p>\n                    <img src=\"bees-with-color/bee-B1SF.svg\" width=\"200\">\n                    <p><span class=\"greenText\"><b>Successful harvest!</b></span><br>Your pay has increased by $0.02. Your bonus pay is now $0.86.</p>\n            ","response":0,"trial_type":"html-button-response","trial_index":102,"time_elapsed":281708,"internal_node_id":"0.0-4.0-1.45","subject_id":"5f4e97aae4fe380a7bad99c7","study_id":"6197b3f67c2b5cd3b6d9596a","session_id":"619be320cb0ea57f85b54834","condition":"full-information","relevant_dimensions":["pattern","legs"],"bee_group":{"antennae":"X","wings":"X","pattern":"D","legs":"M"},"bonus":1.5800000000000012},{"rt":1385.9000000357628,"stimulus":"bees-with-color/bee-B1DM.svg","response":1,"trial_type":"image-button-response","trial_index":103,"time_elapsed":283096,"internal_node_id":"0.0-4.0-0.46","subject_id":"5f4e97aae4fe380a7bad99c7","study_id":"6197b3f67c2b5cd3b6d9596a","session_id":"619be320cb0ea57f85b54834","condition":"full-information","relevant_dimensions":["pattern","legs"],"bee_group":{"antennae":"X","wings":"X","pattern":"D","legs":"M"},"action":"avoid","summary":"good-avoid","bonus":1.5800000000000012},{"rt":1128.199999988079,"stimulus":"\n                    <p><b>Action: <em>avoid</em></b></p>\n                    <p>This is the bee that you just saw.</p>\n                    <img src=\"bees-with-color/bee-B1DM.svg\" width=\"200\">\n                    <p><span class=\"greenText\">Good choice!</span>  This bee would have stung you.<br>Your bonus pay is unchanged, and remains at $0.86.</p>\n            ","response":0,"trial_type":"html-button-response","trial_index":104,"time_elapsed":284227,"internal_node_id":"0.0-4.0-1.46","subject_id":"5f4e97aae4fe380a7bad99c7","study_id":"6197b3f67c2b5cd3b6d9596a","session_id":"619be320cb0ea57f85b54834","condition":"full-information","relevant_dimensions":["pattern","legs"],"bee_group":{"antennae":"X","wings":"X","pattern":"D","legs":"M"},"bonus":1.5800000000000012},{"rt":919.3000000119209,"stimulus":"bees-with-color/bee-B2DM.svg","response":1,"trial_type":"image-button-response","trial_index":105,"time_elapsed":285149,"internal_node_id":"0.0-4.0-0.47","subject_id":"5f4e97aae4fe380a7bad99c7","study_id":"6197b3f67c2b5cd3b6d9596a","session_id":"619be320cb0ea57f85b54834","condition":"full-information","relevant_dimensions":["pattern","legs"],"bee_group":{"antennae":"X","wings":"X","pattern":"D","legs":"M"},"action":"avoid","summary":"good-avoid","bonus":1.5800000000000012},{"rt":612.5,"stimulus":"\n                    <p><b>Action: <em>avoid</em></b></p>\n                    <p>This is the bee that you just saw.</p>\n                    <img src=\"bees-with-color/bee-B2DM.svg\" width=\"200\">\n                    <p><span class=\"greenText\">Good choice!</span>  This bee would have stung you.<br>Your bonus pay is unchanged, and remains at $0.86.</p>\n            ","response":0,"trial_type":"html-button-response","trial_index":106,"time_elapsed":285764,"internal_node_id":"0.0-4.0-1.47","subject_id":"5f4e97aae4fe380a7bad99c7","study_id":"6197b3f67c2b5cd3b6d9596a","session_id":"619be320cb0ea57f85b54834","condition":"full-information","relevant_dimensions":["pattern","legs"],"bee_group":{"antennae":"X","wings":"X","pattern":"D","legs":"M"},"bonus":1.5800000000000012},{"rt":765.1999999880791,"stimulus":"bees-with-color/bee-B2SF.svg","response":0,"trial_type":"image-button-response","trial_index":107,"time_elapsed":286531,"internal_node_id":"0.0-4.0-0.48","subject_id":"5f4e97aae4fe380a7bad99c7","study_id":"6197b3f67c2b5cd3b6d9596a","session_id":"619be320cb0ea57f85b54834","condition":"full-information","relevant_dimensions":["pattern","legs"],"bee_group":{"antennae":"X","wings":"X","pattern":"D","legs":"M"},"action":"harvest","summary":"good-harvest","bonus":1.5800000000000012},{"rt":576.1999999880791,"stimulus":"\n                    <p><b>Action: <em>harvest</em></b></p>\n                    <p>This is the bee that you just saw.</p>\n                    <img src=\"bees-with-color/bee-B2SF.svg\" width=\"200\">\n                    <p><span class=\"greenText\"><b>Successful harvest!</b></span><br>Your pay has increased by $0.02. Your bonus pay is now $0.88.</p>\n            ","response":0,"trial_type":"html-button-response","trial_index":108,"time_elapsed":287109,"internal_node_id":"0.0-4.0-1.48","subject_id":"5f4e97aae4fe380a7bad99c7","study_id":"6197b3f67c2b5cd3b6d9596a","session_id":"619be320cb0ea57f85b54834","condition":"full-information","relevant_dimensions":["pattern","legs"],"bee_group":{"antennae":"X","wings":"X","pattern":"D","legs":"M"},"bonus":1.5800000000000012},{"rt":1306.5,"stimulus":"bees-with-color/bee-A2DM.svg","response":1,"trial_type":"image-button-response","trial_index":109,"time_elapsed":288418,"internal_node_id":"0.0-4.0-0.49","subject_id":"5f4e97aae4fe380a7bad99c7","study_id":"6197b3f67c2b5cd3b6d9596a","session_id":"619be320cb0ea57f85b54834","condition":"full-information","relevant_dimensions":["pattern","legs"],"bee_group":{"antennae":"X","wings":"X","pattern":"D","legs":"M"},"action":"avoid","summary":"good-avoid","bonus":1.5800000000000012},{"rt":512,"stimulus":"\n                    <p><b>Action: <em>avoid</em></b></p>\n                    <p>This is the bee that you just saw.</p>\n                    <img src=\"bees-with-color/bee-A2DM.svg\" width=\"200\">\n                    <p><span class=\"greenText\">Good choice!</span>  This bee would have stung you.<br>Your bonus pay is unchanged, and remains at $0.88.</p>\n            ","response":0,"trial_type":"html-button-response","trial_index":110,"time_elapsed":288933,"internal_node_id":"0.0-4.0-1.49","subject_id":"5f4e97aae4fe380a7bad99c7","study_id":"6197b3f67c2b5cd3b6d9596a","session_id":"619be320cb0ea57f85b54834","condition":"full-information","relevant_dimensions":["pattern","legs"],"bee_group":{"antennae":"X","wings":"X","pattern":"D","legs":"M"},"bonus":1.5800000000000012},{"rt":963.6000000238419,"stimulus":"bees-with-color/bee-A2DF.svg","response":0,"trial_type":"image-button-response","trial_index":111,"time_elapsed":289898,"internal_node_id":"0.0-4.0-0.50","subject_id":"5f4e97aae4fe380a7bad99c7","study_id":"6197b3f67c2b5cd3b6d9596a","session_id":"619be320cb0ea57f85b54834","condition":"full-information","relevant_dimensions":["pattern","legs"],"bee_group":{"antennae":"X","wings":"X","pattern":"D","legs":"M"},"action":"harvest","summary":"good-harvest","bonus":1.5800000000000012},{"rt":569,"stimulus":"\n                    <p><b>Action: <em>harvest</em></b></p>\n                    <p>This is the bee that you just saw.</p>\n                    <img src=\"bees-with-color/bee-A2DF.svg\" width=\"200\">\n                    <p><span class=\"greenText\"><b>Successful harvest!</b></span><br>Your pay has increased by $0.02. Your bonus pay is now $0.90.</p>\n            ","response":0,"trial_type":"html-button-response","trial_index":112,"time_elapsed":290470,"internal_node_id":"0.0-4.0-1.50","subject_id":"5f4e97aae4fe380a7bad99c7","study_id":"6197b3f67c2b5cd3b6d9596a","session_id":"619be320cb0ea57f85b54834","condition":"full-information","relevant_dimensions":["pattern","legs"],"bee_group":{"antennae":"X","wings":"X","pattern":"D","legs":"M"},"bonus":1.5800000000000012},{"rt":729.1999999880791,"stimulus":"bees-with-color/bee-B1DF.svg","response":0,"trial_type":"image-button-response","trial_index":113,"time_elapsed":291200,"internal_node_id":"0.0-4.0-0.51","subject_id":"5f4e97aae4fe380a7bad99c7","study_id":"6197b3f67c2b5cd3b6d9596a","session_id":"619be320cb0ea57f85b54834","condition":"full-information","relevant_dimensions":["pattern","legs"],"bee_group":{"antennae":"X","wings":"X","pattern":"D","legs":"M"},"action":"harvest","summary":"good-harvest","bonus":1.5800000000000012},{"rt":541.1999999880791,"stimulus":"\n                    <p><b>Action: <em>harvest</em></b></p>\n                    <p>This is the bee that you just saw.</p>\n                    <img src=\"bees-with-color/bee-B1DF.svg\" width=\"200\">\n                    <p><span class=\"greenText\"><b>Successful harvest!</b></span><br>Your pay has increased by $0.02. Your bonus pay is now $0.92.</p>\n            ","response":0,"trial_type":"html-button-response","trial_index":114,"time_elapsed":291744,"internal_node_id":"0.0-4.0-1.51","subject_id":"5f4e97aae4fe380a7bad99c7","study_id":"6197b3f67c2b5cd3b6d9596a","session_id":"619be320cb0ea57f85b54834","condition":"full-information","relevant_dimensions":["pattern","legs"],"bee_group":{"antennae":"X","wings":"X","pattern":"D","legs":"M"},"bonus":1.5800000000000012},{"rt":1270.0999999642372,"stimulus":"bees-with-color/bee-B2SM.svg","response":0,"trial_type":"image-button-response","trial_index":115,"time_elapsed":293016,"internal_node_id":"0.0-4.0-0.52","subject_id":"5f4e97aae4fe380a7bad99c7","study_id":"6197b3f67c2b5cd3b6d9596a","session_id":"619be320cb0ea57f85b54834","condition":"full-information","relevant_dimensions":["pattern","legs"],"bee_group":{"antennae":"X","wings":"X","pattern":"D","legs":"M"},"action":"harvest","summary":"good-harvest","bonus":1.5800000000000012},{"rt":583.9000000357628,"stimulus":"\n                    <p><b>Action: <em>harvest</em></b></p>\n                    <p>This is the bee that you just saw.</p>\n                    <img src=\"bees-with-color/bee-B2SM.svg\" width=\"200\">\n                    <p><span class=\"greenText\"><b>Successful harvest!</b></span><br>Your pay has increased by $0.02. Your bonus pay is now $0.94.</p>\n            ","response":0,"trial_type":"html-button-response","trial_index":116,"time_elapsed":293603,"internal_node_id":"0.0-4.0-1.52","subject_id":"5f4e97aae4fe380a7bad99c7","study_id":"6197b3f67c2b5cd3b6d9596a","session_id":"619be320cb0ea57f85b54834","condition":"full-information","relevant_dimensions":["pattern","legs"],"bee_group":{"antennae":"X","wings":"X","pattern":"D","legs":"M"},"bonus":1.5800000000000012},{"rt":891.7999999523163,"stimulus":"bees-with-color/bee-A1DF.svg","response":0,"trial_type":"image-button-response","trial_index":117,"time_elapsed":294497,"internal_node_id":"0.0-4.0-0.53","subject_id":"5f4e97aae4fe380a7bad99c7","study_id":"6197b3f67c2b5cd3b6d9596a","session_id":"619be320cb0ea57f85b54834","condition":"full-information","relevant_dimensions":["pattern","legs"],"bee_group":{"antennae":"X","wings":"X","pattern":"D","legs":"M"},"action":"harvest","summary":"good-harvest","bonus":1.5800000000000012},{"rt":533.5,"stimulus":"\n                    <p><b>Action: <em>harvest</em></b></p>\n                    <p>This is the bee that you just saw.</p>\n                    <img src=\"bees-with-color/bee-A1DF.svg\" width=\"200\">\n                    <p><span class=\"greenText\"><b>Successful harvest!</b></span><br>Your pay has increased by $0.02. Your bonus pay is now $0.96.</p>\n            ","response":0,"trial_type":"html-button-response","trial_index":118,"time_elapsed":295033,"internal_node_id":"0.0-4.0-1.53","subject_id":"5f4e97aae4fe380a7bad99c7","study_id":"6197b3f67c2b5cd3b6d9596a","session_id":"619be320cb0ea57f85b54834","condition":"full-information","relevant_dimensions":["pattern","legs"],"bee_group":{"antennae":"X","wings":"X","pattern":"D","legs":"M"},"bonus":1.5800000000000012},{"rt":613.0999999642372,"stimulus":"bees-with-color/bee-A1SF.svg","response":0,"trial_type":"image-button-response","trial_index":119,"time_elapsed":295648,"internal_node_id":"0.0-4.0-0.54","subject_id":"5f4e97aae4fe380a7bad99c7","study_id":"6197b3f67c2b5cd3b6d9596a","session_id":"619be320cb0ea57f85b54834","condition":"full-information","relevant_dimensions":["pattern","legs"],"bee_group":{"antennae":"X","wings":"X","pattern":"D","legs":"M"},"action":"harvest","summary":"good-harvest","bonus":1.5800000000000012},{"rt":555.3000000119209,"stimulus":"\n                    <p><b>Action: <em>harvest</em></b></p>\n                    <p>This is the bee that you just saw.</p>\n                    <img src=\"bees-with-color/bee-A1SF.svg\" width=\"200\">\n                    <p><span class=\"greenText\"><b>Successful harvest!</b></span><br>Your pay has increased by $0.02. Your bonus pay is now $0.98.</p>\n            ","response":0,"trial_type":"html-button-response","trial_index":120,"time_elapsed":296206,"internal_node_id":"0.0-4.0-1.54","subject_id":"5f4e97aae4fe380a7bad99c7","study_id":"6197b3f67c2b5cd3b6d9596a","session_id":"619be320cb0ea57f85b54834","condition":"full-information","relevant_dimensions":["pattern","legs"],"bee_group":{"antennae":"X","wings":"X","pattern":"D","legs":"M"},"bonus":1.5800000000000012},{"rt":749.1000000238419,"stimulus":"bees-with-color/bee-B2DM.svg","response":1,"trial_type":"image-button-response","trial_index":121,"time_elapsed":296958,"internal_node_id":"0.0-4.0-0.55","subject_id":"5f4e97aae4fe380a7bad99c7","study_id":"6197b3f67c2b5cd3b6d9596a","session_id":"619be320cb0ea57f85b54834","condition":"full-information","relevant_dimensions":["pattern","legs"],"bee_group":{"antennae":"X","wings":"X","pattern":"D","legs":"M"},"action":"avoid","summary":"good-avoid","bonus":1.5800000000000012},{"rt":554.8000000119209,"stimulus":"\n                    <p><b>Action: <em>avoid</em></b></p>\n                    <p>This is the bee that you just saw.</p>\n                    <img src=\"bees-with-color/bee-B2DM.svg\" width=\"200\">\n                    <p><span class=\"greenText\">Good choice!</span>  This bee would have stung you.<br>Your bonus pay is unchanged, and remains at $0.98.</p>\n            ","response":0,"trial_type":"html-button-response","trial_index":122,"time_elapsed":297515,"internal_node_id":"0.0-4.0-1.55","subject_id":"5f4e97aae4fe380a7bad99c7","study_id":"6197b3f67c2b5cd3b6d9596a","session_id":"619be320cb0ea57f85b54834","condition":"full-information","relevant_dimensions":["pattern","legs"],"bee_group":{"antennae":"X","wings":"X","pattern":"D","legs":"M"},"bonus":1.5800000000000012},{"rt":584.1000000238419,"stimulus":"bees-with-color/bee-A1DM.svg","response":1,"trial_type":"image-button-response","trial_index":123,"time_elapsed":298102,"internal_node_id":"0.0-4.0-0.56","subject_id":"5f4e97aae4fe380a7bad99c7","study_id":"6197b3f67c2b5cd3b6d9596a","session_id":"619be320cb0ea57f85b54834","condition":"full-information","relevant_dimensions":["pattern","legs"],"bee_group":{"antennae":"X","wings":"X","pattern":"D","legs":"M"},"action":"avoid","summary":"good-avoid","bonus":1.5800000000000012},{"rt":519.5,"stimulus":"\n                    <p><b>Action: <em>avoid</em></b></p>\n                    <p>This is the bee that you just saw.</p>\n                    <img src=\"bees-with-color/bee-A1DM.svg\" width=\"200\">\n                    <p><span class=\"greenText\">Good choice!</span>  This bee would have stung you.<br>Your bonus pay is unchanged, and remains at $0.98.</p>\n            ","response":0,"trial_type":"html-button-response","trial_index":124,"time_elapsed":298624,"internal_node_id":"0.0-4.0-1.56","subject_id":"5f4e97aae4fe380a7bad99c7","study_id":"6197b3f67c2b5cd3b6d9596a","session_id":"619be320cb0ea57f85b54834","condition":"full-information","relevant_dimensions":["pattern","legs"],"bee_group":{"antennae":"X","wings":"X","pattern":"D","legs":"M"},"bonus":1.5800000000000012},{"rt":655.0999999642372,"stimulus":"bees-with-color/bee-A2SF.svg","response":0,"trial_type":"image-button-response","trial_index":125,"time_elapsed":299281,"internal_node_id":"0.0-4.0-0.57","subject_id":"5f4e97aae4fe380a7bad99c7","study_id":"6197b3f67c2b5cd3b6d9596a","session_id":"619be320cb0ea57f85b54834","condition":"full-information","relevant_dimensions":["pattern","legs"],"bee_group":{"antennae":"X","wings":"X","pattern":"D","legs":"M"},"action":"harvest","summary":"good-harvest","bonus":1.5800000000000012},{"rt":527.6000000238419,"stimulus":"\n                    <p><b>Action: <em>harvest</em></b></p>\n                    <p>This is the bee that you just saw.</p>\n                    <img src=\"bees-with-color/bee-A2SF.svg\" width=\"200\">\n                    <p><span class=\"greenText\"><b>Successful harvest!</b></span><br>Your pay has increased by $0.02. Your bonus pay is now $1.00.</p>\n            ","response":0,"trial_type":"html-button-response","trial_index":126,"time_elapsed":299811,"internal_node_id":"0.0-4.0-1.57","subject_id":"5f4e97aae4fe380a7bad99c7","study_id":"6197b3f67c2b5cd3b6d9596a","session_id":"619be320cb0ea57f85b54834","condition":"full-information","relevant_dimensions":["pattern","legs"],"bee_group":{"antennae":"X","wings":"X","pattern":"D","legs":"M"},"bonus":1.5800000000000012},{"rt":676.6000000238419,"stimulus":"bees-with-color/bee-A1SM.svg","response":0,"trial_type":"image-button-response","trial_index":127,"time_elapsed":300490,"internal_node_id":"0.0-4.0-0.58","subject_id":"5f4e97aae4fe380a7bad99c7","study_id":"6197b3f67c2b5cd3b6d9596a","session_id":"619be320cb0ea57f85b54834","condition":"full-information","relevant_dimensions":["pattern","legs"],"bee_group":{"antennae":"X","wings":"X","pattern":"D","legs":"M"},"action":"harvest","summary":"good-harvest","bonus":1.5800000000000012},{"rt":619.7999999523163,"stimulus":"\n                    <p><b>Action: <em>harvest</em></b></p>\n                    <p>This is the bee that you just saw.</p>\n                    <img src=\"bees-with-color/bee-A1SM.svg\" width=\"200\">\n                    <p><span class=\"greenText\"><b>Successful harvest!</b></span><br>Your pay has increased by $0.02. Your bonus pay is now $1.02.</p>\n            ","response":0,"trial_type":"html-button-response","trial_index":128,"time_elapsed":301113,"internal_node_id":"0.0-4.0-1.58","subject_id":"5f4e97aae4fe380a7bad99c7","study_id":"6197b3f67c2b5cd3b6d9596a","session_id":"619be320cb0ea57f85b54834","condition":"full-information","relevant_dimensions":["pattern","legs"],"bee_group":{"antennae":"X","wings":"X","pattern":"D","legs":"M"},"bonus":1.5800000000000012},{"rt":1313.5,"stimulus":"bees-with-color/bee-B1DM.svg","response":1,"trial_type":"image-button-response","trial_index":129,"time_elapsed":302429,"internal_node_id":"0.0-4.0-0.59","subject_id":"5f4e97aae4fe380a7bad99c7","study_id":"6197b3f67c2b5cd3b6d9596a","session_id":"619be320cb0ea57f85b54834","condition":"full-information","relevant_dimensions":["pattern","legs"],"bee_group":{"antennae":"X","wings":"X","pattern":"D","legs":"M"},"action":"avoid","summary":"good-avoid","bonus":1.5800000000000012},{"rt":633.5999999642372,"stimulus":"\n                    <p><b>Action: <em>avoid</em></b></p>\n                    <p>This is the bee that you just saw.</p>\n                    <img src=\"bees-with-color/bee-B1DM.svg\" width=\"200\">\n                    <p><span class=\"greenText\">Good choice!</span>  This bee would have stung you.<br>Your bonus pay is unchanged, and remains at $1.02.</p>\n            ","response":0,"trial_type":"html-button-response","trial_index":130,"time_elapsed":303065,"internal_node_id":"0.0-4.0-1.59","subject_id":"5f4e97aae4fe380a7bad99c7","study_id":"6197b3f67c2b5cd3b6d9596a","session_id":"619be320cb0ea57f85b54834","condition":"full-information","relevant_dimensions":["pattern","legs"],"bee_group":{"antennae":"X","wings":"X","pattern":"D","legs":"M"},"bonus":1.5800000000000012},{"rt":798.7999999523163,"stimulus":"bees-with-color/bee-B1SM.svg","response":0,"trial_type":"image-button-response","trial_index":131,"time_elapsed":303866,"internal_node_id":"0.0-4.0-0.60","subject_id":"5f4e97aae4fe380a7bad99c7","study_id":"6197b3f67c2b5cd3b6d9596a","session_id":"619be320cb0ea57f85b54834","condition":"full-information","relevant_dimensions":["pattern","legs"],"bee_group":{"antennae":"X","wings":"X","pattern":"D","legs":"M"},"action":"harvest","summary":"good-harvest","bonus":1.5800000000000012},{"rt":549.9000000357628,"stimulus":"\n                    <p><b>Action: <em>harvest</em></b></p>\n                    <p>This is the bee that you just saw.</p>\n                    <img src=\"bees-with-color/bee-B1SM.svg\" width=\"200\">\n                    <p><span class=\"greenText\"><b>Successful harvest!</b></span><br>Your pay has increased by $0.02. Your bonus pay is now $1.04.</p>\n            ","response":0,"trial_type":"html-button-response","trial_index":132,"time_elapsed":304418,"internal_node_id":"0.0-4.0-1.60","subject_id":"5f4e97aae4fe380a7bad99c7","study_id":"6197b3f67c2b5cd3b6d9596a","session_id":"619be320cb0ea57f85b54834","condition":"full-information","relevant_dimensions":["pattern","legs"],"bee_group":{"antennae":"X","wings":"X","pattern":"D","legs":"M"},"bonus":1.5800000000000012},{"rt":583.4000000357628,"stimulus":"bees-with-color/bee-A2SM.svg","response":0,"trial_type":"image-button-response","trial_index":133,"time_elapsed":305003,"internal_node_id":"0.0-4.0-0.61","subject_id":"5f4e97aae4fe380a7bad99c7","study_id":"6197b3f67c2b5cd3b6d9596a","session_id":"619be320cb0ea57f85b54834","condition":"full-information","relevant_dimensions":["pattern","legs"],"bee_group":{"antennae":"X","wings":"X","pattern":"D","legs":"M"},"action":"harvest","summary":"good-harvest","bonus":1.5800000000000012},{"rt":548.3000000119209,"stimulus":"\n                    <p><b>Action: <em>harvest</em></b></p>\n                    <p>This is the bee that you just saw.</p>\n                    <img src=\"bees-with-color/bee-A2SM.svg\" width=\"200\">\n                    <p><span class=\"greenText\"><b>Successful harvest!</b></span><br>Your pay has increased by $0.02. Your bonus pay is now $1.06.</p>\n            ","response":0,"trial_type":"html-button-response","trial_index":134,"time_elapsed":305554,"internal_node_id":"0.0-4.0-1.61","subject_id":"5f4e97aae4fe380a7bad99c7","study_id":"6197b3f67c2b5cd3b6d9596a","session_id":"619be320cb0ea57f85b54834","condition":"full-information","relevant_dimensions":["pattern","legs"],"bee_group":{"antennae":"X","wings":"X","pattern":"D","legs":"M"},"bonus":1.5800000000000012},{"rt":604.8000000119209,"stimulus":"bees-with-color/bee-B1SF.svg","response":0,"trial_type":"image-button-response","trial_index":135,"time_elapsed":306162,"internal_node_id":"0.0-4.0-0.62","subject_id":"5f4e97aae4fe380a7bad99c7","study_id":"6197b3f67c2b5cd3b6d9596a","session_id":"619be320cb0ea57f85b54834","condition":"full-information","relevant_dimensions":["pattern","legs"],"bee_group":{"antennae":"X","wings":"X","pattern":"D","legs":"M"},"action":"harvest","summary":"good-harvest","bonus":1.5800000000000012},{"rt":533.7000000476837,"stimulus":"\n                    <p><b>Action: <em>harvest</em></b></p>\n                    <p>This is the bee that you just saw.</p>\n                    <img src=\"bees-with-color/bee-B1SF.svg\" width=\"200\">\n                    <p><span class=\"greenText\"><b>Successful harvest!</b></span><br>Your pay has increased by $0.02. Your bonus pay is now $1.08.</p>\n            ","response":0,"trial_type":"html-button-response","trial_index":136,"time_elapsed":306698,"internal_node_id":"0.0-4.0-1.62","subject_id":"5f4e97aae4fe380a7bad99c7","study_id":"6197b3f67c2b5cd3b6d9596a","session_id":"619be320cb0ea57f85b54834","condition":"full-information","relevant_dimensions":["pattern","legs"],"bee_group":{"antennae":"X","wings":"X","pattern":"D","legs":"M"},"bonus":1.5800000000000012},{"rt":1242.5,"stimulus":"bees-with-color/bee-B2DF.svg","response":0,"trial_type":"image-button-response","trial_index":137,"time_elapsed":307944,"internal_node_id":"0.0-4.0-0.63","subject_id":"5f4e97aae4fe380a7bad99c7","study_id":"6197b3f67c2b5cd3b6d9596a","session_id":"619be320cb0ea57f85b54834","condition":"full-information","relevant_dimensions":["pattern","legs"],"bee_group":{"antennae":"X","wings":"X","pattern":"D","legs":"M"},"action":"harvest","summary":"good-harvest","bonus":1.5800000000000012},{"rt":517.5,"stimulus":"\n                    <p><b>Action: <em>harvest</em></b></p>\n                    <p>This is the bee that you just saw.</p>\n                    <img src=\"bees-with-color/bee-B2DF.svg\" width=\"200\">\n                    <p><span class=\"greenText\"><b>Successful harvest!</b></span><br>Your pay has increased by $0.02. Your bonus pay is now $1.10.</p>\n            ","response":0,"trial_type":"html-button-response","trial_index":138,"time_elapsed":308464,"internal_node_id":"0.0-4.0-1.63","subject_id":"5f4e97aae4fe380a7bad99c7","study_id":"6197b3f67c2b5cd3b6d9596a","session_id":"619be320cb0ea57f85b54834","condition":"full-information","relevant_dimensions":["pattern","legs"],"bee_group":{"antennae":"X","wings":"X","pattern":"D","legs":"M"},"bonus":1.5800000000000012},{"rt":4986,"stimulus":"You have completed the first part of this experiment.<br><br>You will now begin a shorter second part, in which you will receive no feedback.<br>The same rules regarding bonus pay apply.<br><br>Press any key to begin.","response":" ","trial_type":"html-keyboard-response","trial_index":139,"time_elapsed":313451,"internal_node_id":"0.0-5.0","subject_id":"5f4e97aae4fe380a7bad99c7","study_id":"6197b3f67c2b5cd3b6d9596a","session_id":"619be320cb0ea57f85b54834","condition":"full-information","relevant_dimensions":["pattern","legs"],"bee_group":{"antennae":"X","wings":"X","pattern":"D","legs":"M"},"bonus":1.5800000000000012},{"rt":2005,"stimulus":"bees-with-color/bee-B1DF.svg","response":0,"trial_type":"image-button-response","trial_index":140,"time_elapsed":315475,"internal_node_id":"0.0-6.0-0.0","subject_id":"5f4e97aae4fe380a7bad99c7","study_id":"6197b3f67c2b5cd3b6d9596a","session_id":"619be320cb0ea57f85b54834","condition":"full-information","relevant_dimensions":["pattern","legs"],"bee_group":{"antennae":"X","wings":"X","pattern":"D","legs":"M"},"bonus":1.5800000000000012},{"rt":4008.599999964237,"stimulus":"bees-with-color/bee-B2SF.svg","response":0,"trial_type":"image-button-response","trial_index":141,"time_elapsed":319487,"internal_node_id":"0.0-6.0-0.1","subject_id":"5f4e97aae4fe380a7bad99c7","study_id":"6197b3f67c2b5cd3b6d9596a","session_id":"619be320cb0ea57f85b54834","condition":"full-information","relevant_dimensions":["pattern","legs"],"bee_group":{"antennae":"X","wings":"X","pattern":"D","legs":"M"},"bonus":1.5800000000000012},{"rt":832.3000000119209,"stimulus":"bees-with-color/bee-A2SM.svg","response":0,"trial_type":"image-button-response","trial_index":142,"time_elapsed":320322,"internal_node_id":"0.0-6.0-0.2","subject_id":"5f4e97aae4fe380a7bad99c7","study_id":"6197b3f67c2b5cd3b6d9596a","session_id":"619be320cb0ea57f85b54834","condition":"full-information","relevant_dimensions":["pattern","legs"],"bee_group":{"antennae":"X","wings":"X","pattern":"D","legs":"M"},"bonus":1.5800000000000012},{"rt":742.5,"stimulus":"bees-with-color/bee-A1DF.svg","response":0,"trial_type":"image-button-response","trial_index":143,"time_elapsed":321067,"internal_node_id":"0.0-6.0-0.3","subject_id":"5f4e97aae4fe380a7bad99c7","study_id":"6197b3f67c2b5cd3b6d9596a","session_id":"619be320cb0ea57f85b54834","condition":"full-information","relevant_dimensions":["pattern","legs"],"bee_group":{"antennae":"X","wings":"X","pattern":"D","legs":"M"},"bonus":1.5800000000000012},{"rt":769.6000000238419,"stimulus":"bees-with-color/bee-A2DM.svg","response":1,"trial_type":"image-button-response","trial_index":144,"time_elapsed":321839,"internal_node_id":"0.0-6.0-0.4","subject_id":"5f4e97aae4fe380a7bad99c7","study_id":"6197b3f67c2b5cd3b6d9596a","session_id":"619be320cb0ea57f85b54834","condition":"full-information","relevant_dimensions":["pattern","legs"],"bee_group":{"antennae":"X","wings":"X","pattern":"D","legs":"M"},"bonus":1.5800000000000012},{"rt":684.1999999880791,"stimulus":"bees-with-color/bee-A1DM.svg","response":1,"trial_type":"image-button-response","trial_index":145,"time_elapsed":322527,"internal_node_id":"0.0-6.0-0.5","subject_id":"5f4e97aae4fe380a7bad99c7","study_id":"6197b3f67c2b5cd3b6d9596a","session_id":"619be320cb0ea57f85b54834","condition":"full-information","relevant_dimensions":["pattern","legs"],"bee_group":{"antennae":"X","wings":"X","pattern":"D","legs":"M"},"bonus":1.5800000000000012},{"rt":583.6000000238419,"stimulus":"bees-with-color/bee-A1SF.svg","response":0,"trial_type":"image-button-response","trial_index":146,"time_elapsed":323113,"internal_node_id":"0.0-6.0-0.6","subject_id":"5f4e97aae4fe380a7bad99c7","study_id":"6197b3f67c2b5cd3b6d9596a","session_id":"619be320cb0ea57f85b54834","condition":"full-information","relevant_dimensions":["pattern","legs"],"bee_group":{"antennae":"X","wings":"X","pattern":"D","legs":"M"},"bonus":1.5800000000000012},{"rt":490.10000002384186,"stimulus":"bees-with-color/bee-A1SM.svg","response":0,"trial_type":"image-button-response","trial_index":147,"time_elapsed":323606,"internal_node_id":"0.0-6.0-0.7","subject_id":"5f4e97aae4fe380a7bad99c7","study_id":"6197b3f67c2b5cd3b6d9596a","session_id":"619be320cb0ea57f85b54834","condition":"full-information","relevant_dimensions":["pattern","legs"],"bee_group":{"antennae":"X","wings":"X","pattern":"D","legs":"M"},"bonus":1.5800000000000012},{"rt":514.4000000357628,"stimulus":"bees-with-color/bee-B2SM.svg","response":0,"trial_type":"image-button-response","trial_index":148,"time_elapsed":324124,"internal_node_id":"0.0-6.0-0.8","subject_id":"5f4e97aae4fe380a7bad99c7","study_id":"6197b3f67c2b5cd3b6d9596a","session_id":"619be320cb0ea57f85b54834","condition":"full-information","relevant_dimensions":["pattern","legs"],"bee_group":{"antennae":"X","wings":"X","pattern":"D","legs":"M"},"bonus":1.5800000000000012},{"rt":854,"stimulus":"bees-with-color/bee-B1DM.svg","response":1,"trial_type":"image-button-response","trial_index":149,"time_elapsed":324979,"internal_node_id":"0.0-6.0-0.9","subject_id":"5f4e97aae4fe380a7bad99c7","study_id":"6197b3f67c2b5cd3b6d9596a","session_id":"619be320cb0ea57f85b54834","condition":"full-information","relevant_dimensions":["pattern","legs"],"bee_group":{"antennae":"X","wings":"X","pattern":"D","legs":"M"},"bonus":1.5800000000000012},{"rt":769.5,"stimulus":"bees-with-color/bee-B1SM.svg","response":0,"trial_type":"image-button-response","trial_index":150,"time_elapsed":325752,"internal_node_id":"0.0-6.0-0.10","subject_id":"5f4e97aae4fe380a7bad99c7","study_id":"6197b3f67c2b5cd3b6d9596a","session_id":"619be320cb0ea57f85b54834","condition":"full-information","relevant_dimensions":["pattern","legs"],"bee_group":{"antennae":"X","wings":"X","pattern":"D","legs":"M"},"bonus":1.5800000000000012},{"rt":776.6999999880791,"stimulus":"bees-with-color/bee-B1SF.svg","response":0,"trial_type":"image-button-response","trial_index":151,"time_elapsed":326532,"internal_node_id":"0.0-6.0-0.11","subject_id":"5f4e97aae4fe380a7bad99c7","study_id":"6197b3f67c2b5cd3b6d9596a","session_id":"619be320cb0ea57f85b54834","condition":"full-information","relevant_dimensions":["pattern","legs"],"bee_group":{"antennae":"X","wings":"X","pattern":"D","legs":"M"},"bonus":1.5800000000000012},{"rt":897.8000000119209,"stimulus":"bees-with-color/bee-B2DF.svg","response":0,"trial_type":"image-button-response","trial_index":152,"time_elapsed":327433,"internal_node_id":"0.0-6.0-0.12","subject_id":"5f4e97aae4fe380a7bad99c7","study_id":"6197b3f67c2b5cd3b6d9596a","session_id":"619be320cb0ea57f85b54834","condition":"full-information","relevant_dimensions":["pattern","legs"],"bee_group":{"antennae":"X","wings":"X","pattern":"D","legs":"M"},"bonus":1.5800000000000012},{"rt":547.6000000238419,"stimulus":"bees-with-color/bee-A2SF.svg","response":0,"trial_type":"image-button-response","trial_index":153,"time_elapsed":327983,"internal_node_id":"0.0-6.0-0.13","subject_id":"5f4e97aae4fe380a7bad99c7","study_id":"6197b3f67c2b5cd3b6d9596a","session_id":"619be320cb0ea57f85b54834","condition":"full-information","relevant_dimensions":["pattern","legs"],"bee_group":{"antennae":"X","wings":"X","pattern":"D","legs":"M"},"bonus":1.5800000000000012},{"rt":613.5,"stimulus":"bees-with-color/bee-A2DF.svg","response":0,"trial_type":"image-button-response","trial_index":154,"time_elapsed":328600,"internal_node_id":"0.0-6.0-0.14","subject_id":"5f4e97aae4fe380a7bad99c7","study_id":"6197b3f67c2b5cd3b6d9596a","session_id":"619be320cb0ea57f85b54834","condition":"full-information","relevant_dimensions":["pattern","legs"],"bee_group":{"antennae":"X","wings":"X","pattern":"D","legs":"M"},"bonus":1.5800000000000012},{"rt":783.9000000357628,"stimulus":"bees-with-color/bee-B2DM.svg","response":1,"trial_type":"image-button-response","trial_index":155,"time_elapsed":329385,"internal_node_id":"0.0-6.0-0.15","subject_id":"5f4e97aae4fe380a7bad99c7","study_id":"6197b3f67c2b5cd3b6d9596a","session_id":"619be320cb0ea57f85b54834","condition":"full-information","relevant_dimensions":["pattern","legs"],"bee_group":{"antennae":"X","wings":"X","pattern":"D","legs":"M"},"bonus":1.5800000000000012},{"rt":1041.4000000357628,"stimulus":"bees-with-color/bee-B2DF