[{"success":true,"trial_type":"fullscreen","trial_index":0,"time_elapsed":6676,"internal_node_id":"0.0-0.0","subject_id":"60fe02e403ca7461c800b867","study_id":"6197b3f67c2b5cd3b6d9596a","session_id":"6197b569a7a387647ff964b9","condition":"contingent","relevant_dimensions":["pattern","legs"],"bee_group":{"antennae":"X","wings":"X","pattern":"D","legs":"M"},"bonus":0},{"success":true,"timeout":false,"failed_images":[],"failed_audio":[],"failed_video":[],"trial_type":"preload","trial_index":1,"time_elapsed":6706,"internal_node_id":"0.0-1.0","subject_id":"60fe02e403ca7461c800b867","study_id":"6197b3f67c2b5cd3b6d9596a","session_id":"6197b569a7a387647ff964b9","condition":"contingent","relevant_dimensions":["pattern","legs"],"bee_group":{"antennae":"X","wings":"X","pattern":"D","legs":"M"},"bonus":0},{"rt":6837.5,"stimulus":"Welcome! Press any key to begin.","response":" ","trial_type":"html-keyboard-response","trial_index":2,"time_elapsed":13546,"internal_node_id":"0.0-2.0","subject_id":"60fe02e403ca7461c800b867","study_id":"6197b3f67c2b5cd3b6d9596a","session_id":"6197b569a7a387647ff964b9","condition":"contingent","relevant_dimensions":["pattern","legs"],"bee_group":{"antennae":"X","wings":"X","pattern":"D","legs":"M"},"bonus":0},{"view_history":[{"page_index":0,"viewing_time":4765.09999999986},{"page_index":1,"viewing_time":24865.90000000014},{"page_index":2,"viewing_time":2214},{"page_index":3,"viewing_time":14370.59999999986},{"page_index":4,"viewing_time":11789.600000000093},{"page_index":5,"viewing_time":3681.100000000093},{"page_index":6,"viewing_time":3328.6999999999534},{"page_index":7,"viewing_time":3732.3000000000466},{"page_index":8,"viewing_time":2023.0999999998603},{"page_index":9,"viewing_time":2097.100000000093},{"page_index":10,"viewing_time":3387.399999999907},{"page_index":11,"viewing_time":25358.199999999953},{"page_index":12,"viewing_time":19702},{"page_index":13,"viewing_time":2067.5},{"page_index":14,"viewing_time":3050.100000000093}],"rt":126433.5,"trial_type":"instructions","trial_index":3,"time_elapsed":139986,"internal_node_id":"0.0-3.0-0.0","subject_id":"60fe02e403ca7461c800b867","study_id":"6197b3f67c2b5cd3b6d9596a","session_id":"6197b569a7a387647ff964b9","condition":"contingent","relevant_dimensions":["pattern","legs"],"bee_group":{"antennae":"X","wings":"X","pattern":"D","legs":"M"},"bonus":0},{"rt":17085.899999999907,"response":{"Q0":["Two or six legs","Stripes or spots on body","Single or double wings","Antennae or no antennae"]},"question_order":[0],"trial_type":"survey-multi-select","trial_index":4,"time_elapsed":157079,"internal_node_id":"0.0-3.0-1.0","subject_id":"60fe02e403ca7461c800b867","study_id":"6197b3f67c2b5cd3b6d9596a","session_id":"6197b569a7a387647ff964b9","condition":"contingent","relevant_dimensions":["pattern","legs"],"bee_group":{"antennae":"X","wings":"X","pattern":"D","legs":"M"},"correct":true,"bonus":0},{"rt":37283.90000000014,"response":{"Q1":"No.","Q2":"Based on the four features of the bee.","Q3":"You learn if it was friendly or dangerous, but do not alter your bonus."},"question_order":[0,1,2],"trial_type":"survey-multi-choice","trial_index":5,"time_elapsed":194369,"internal_node_id":"0.0-3.0-2.0","subject_id":"60fe02e403ca7461c800b867","study_id":"6197b3f67c2b5cd3b6d9596a","session_id":"6197b569a7a387647ff964b9","condition":"contingent","relevant_dimensions":["pattern","legs"],"bee_group":{"antennae":"X","wings":"X","pattern":"D","legs":"M"},"correct":false,"bonus":0},{"rt":13355.59999999986,"stimulus":"<p>You did not answer all comprehension questions correctly.<br>Press <b>continue</b> to review the instructions again.</p>","response":0,"trial_type":"html-button-response","trial_index":6,"time_elapsed":207729,"internal_node_id":"0.0-3.0-3.0","subject_id":"60fe02e403ca7461c800b867","study_id":"6197b3f67c2b5cd3b6d9596a","session_id":"6197b569a7a387647ff964b9","condition":"contingent","relevant_dimensions":["pattern","legs"],"bee_group":{"antennae":"X","wings":"X","pattern":"D","legs":"M"},"bonus":0},{"view_history":[{"page_index":0,"viewing_time":11574},{"page_index":1,"viewing_time":25622.699999999953},{"page_index":2,"viewing_time":21988.90000000014},{"page_index":3,"viewing_time":37333.299999999814},{"page_index":4,"viewing_time":20909.100000000093},{"page_index":5,"viewing_time":23600.799999999814},{"page_index":6,"viewing_time":15950.5},{"page_index":7,"viewing_time":4947.200000000186},{"page_index":8,"viewing_time":4874.700000000186},{"page_index":9,"viewing_time":3313.2999999998137},{"page_index":10,"viewing_time":1392.7999999998137},{"page_index":11,"viewing_time":15043.100000000093},{"page_index":12,"viewing_time":5629.800000000279},{"page_index":13,"viewing_time":2068},{"page_index":14,"viewing_time":2441.399999999907}],"rt":196690.2000000002,"trial_type":"instructions","trial_index":7,"time_elapsed":404421,"internal_node_id":"0.0-3.0-4.0-0.0","subject_id":"60fe02e403ca7461c800b867","study_id":"6197b3f67c2b5cd3b6d9596a","session_id":"6197b569a7a387647ff964b9","condition":"contingent","relevant_dimensions":["pattern","legs"],"bee_group":{"antennae":"X","wings":"X","pattern":"D","legs":"M"},"bonus":0},{"rt":11365.700000000186,"response":{"Q0":["Two or six legs","Stripes or spots on body","Single or double wings","Antennae or no antennae"]},"question_order":[0],"trial_type":"survey-multi-select","trial_index":8,"time_elapsed":415793,"internal_node_id":"0.0-3.0-4.0-1.0","subject_id":"60fe02e403ca7461c800b867","study_id":"6197b3f67c2b5cd3b6d9596a","session_id":"6197b569a7a387647ff964b9","condition":"contingent","relevant_dimensions":["pattern","legs"],"bee_group":{"antennae":"X","wings":"X","pattern":"D","legs":"M"},"correct":true,"bonus":0},{"rt":35061.299999999814,"response":{"Q1":"No.","Q2":"Based on the four features of the bee.","Q3":"You do not learn if it was friendly or dangerous, and do not alter your bonus."},"question_order":[0,1,2],"trial_type":"survey-multi-choice","trial_index":9,"time_elapsed":450859,"internal_node_id":"0.0-3.0-4.0-2.0","subject_id":"60fe02e403ca7461c800b867","study_id":"6197b3f67c2b5cd3b6d9596a","session_id":"6197b569a7a387647ff964b9","condition":"contingent","relevant_dimensions":["pattern","legs"],"bee_group":{"antennae":"X","wings":"X","pattern":"D","legs":"M"},"correct":true,"bonus":0},{"rt":5646.899999999907,"stimulus":"<p>Congrats, you got everything right<br>When you're ready, click the button below to continue to the experiment.</p>","response":0,"trial_type":"html-button-response","trial_index":10,"time_elapsed":456511,"internal_node_id":"0.0-3.0-4.0-3.0","subject_id":"60fe02e403ca7461c800b867","study_id":"6197b3f67c2b5cd3b6d9596a","session_id":"6197b569a7a387647ff964b9","condition":"contingent","relevant_dimensions":["pattern","legs"],"bee_group":{"antennae":"X","wings":"X","pattern":"D","legs":"M"},"bonus":0},{"rt":7138.5,"stimulus":"bees-with-color/bee-B1DF.svg","response":0,"trial_type":"image-button-response","trial_index":11,"time_elapsed":463658,"internal_node_id":"0.0-4.0-0.0","subject_id":"60fe02e403ca7461c800b867","study_id":"6197b3f67c2b5cd3b6d9596a","session_id":"6197b569a7a387647ff964b9","condition":"contingent","relevant_dimensions":["pattern","legs"],"bee_group":{"antennae":"X","wings":"X","pattern":"D","legs":"M"},"action":"harvest","summary":"good-harvest","bonus":0},{"rt":16151.100000000093,"stimulus":"\n                    <p><b>Action: <em>harvest</em></b></p>\n                    <p>This is the bee that you just saw.</p>\n                    <img src=\"bees-with-color/bee-B1DF.svg\" width=\"200\">\n                    <p><span class=\"greenText\"><b>Successful harvest!</b></span><br>Your pay has increased by $0.02. Your bonus pay is now $0.56.</p>\n            ","response":0,"trial_type":"html-button-response","trial_index":12,"time_elapsed":479815,"internal_node_id":"0.0-4.0-1.0","subject_id":"60fe02e403ca7461c800b867","study_id":"6197b3f67c2b5cd3b6d9596a","session_id":"6197b569a7a387647ff964b9","condition":"contingent","relevant_dimensions":["pattern","legs"],"bee_group":{"antennae":"X","wings":"X","pattern":"D","legs":"M"},"bonus":0},{"rt":8667.30000000028,"stimulus":"bees-with-color/bee-A1SM.svg","response":0,"trial_type":"image-button-response","trial_index":13,"time_elapsed":488487,"internal_node_id":"0.0-4.0-0.1","subject_id":"60fe02e403ca7461c800b867","study_id":"6197b3f67c2b5cd3b6d9596a","session_id":"6197b569a7a387647ff964b9","condition":"contingent","relevant_dimensions":["pattern","legs"],"bee_group":{"antennae":"X","wings":"X","pattern":"D","legs":"M"},"action":"harvest","summary":"good-harvest","bonus":0},{"rt":2656.5,"stimulus":"\n                    <p><b>Action: <em>harvest</em></b></p>\n                    <p>This is the bee that you just saw.</p>\n                    <img src=\"bees-with-color/bee-A1SM.svg\" width=\"200\">\n                    <p><span class=\"greenText\"><b>Successful harvest!</b></span><br>Your pay has increased by $0.02. Your bonus pay is now $0.58.</p>\n            ","response":0,"trial_type":"html-button-response","trial_index":14,"time_elapsed":491146,"internal_node_id":"0.0-4.0-1.1","subject_id":"60fe02e403ca7461c800b867","study_id":"6197b3f67c2b5cd3b6d9596a","session_id":"6197b569a7a387647ff964b9","condition":"contingent","relevant_dimensions":["pattern","legs"],"bee_group":{"antennae":"X","wings":"X","pattern":"D","legs":"M"},"bonus":0},{"rt":1206,"stimulus":"bees-with-color/bee-B1SM.svg","response":0,"trial_type":"image-button-response","trial_index":15,"time_elapsed":492356,"internal_node_id":"0.0-4.0-0.2","subject_id":"60fe02e403ca7461c800b867","study_id":"6197b3f67c2b5cd3b6d9596a","session_id":"6197b569a7a387647ff964b9","condition":"contingent","relevant_dimensions":["pattern","legs"],"bee_group":{"antennae":"X","wings":"X","pattern":"D","legs":"M"},"action":"harvest","summary":"good-harvest","bonus":0},{"rt":1498.7000000001863,"stimulus":"\n                    <p><b>Action: <em>harvest</em></b></p>\n                    <p>This is the bee that you just saw.</p>\n                    <img src=\"bees-with-color/bee-B1SM.svg\" width=\"200\">\n                    <p><span class=\"greenText\"><b>Successful harvest!</b></span><br>Your pay has increased by $0.02. Your bonus pay is now $0.60.</p>\n            ","response":0,"trial_type":"html-button-response","trial_index":16,"time_elapsed":493858,"internal_node_id":"0.0-4.0-1.2","subject_id":"60fe02e403ca7461c800b867","study_id":"6197b3f67c2b5cd3b6d9596a","session_id":"6197b569a7a387647ff964b9","condition":"contingent","relevant_dimensions":["pattern","legs"],"bee_group":{"antennae":"X","wings":"X","pattern":"D","legs":"M"},"bonus":0},{"rt":1250,"stimulus":"bees-with-color/bee-A2DF.svg","response":0,"trial_type":"image-button-response","trial_index":17,"time_elapsed":495112,"internal_node_id":"0.0-4.0-0.3","subject_id":"60fe02e403ca7461c800b867","study_id":"6197b3f67c2b5cd3b6d9596a","session_id":"6197b569a7a387647ff964b9","condition":"contingent","relevant_dimensions":["pattern","legs"],"bee_group":{"antennae":"X","wings":"X","pattern":"D","legs":"M"},"action":"harvest","summary":"good-harvest","bonus":0},{"rt":1396.8999999999069,"stimulus":"\n                    <p><b>Action: <em>harvest</em></b></p>\n                    <p>This is the bee that you just saw.</p>\n                    <img src=\"bees-with-color/bee-A2DF.svg\" width=\"200\">\n                    <p><span class=\"greenText\"><b>Successful harvest!</b></span><br>Your pay has increased by $0.02. Your bonus pay is now $0.62.</p>\n            ","response":0,"trial_type":"html-button-response","trial_index":18,"time_elapsed":496513,"internal_node_id":"0.0-4.0-1.3","subject_id":"60fe02e403ca7461c800b867","study_id":"6197b3f67c2b5cd3b6d9596a","session_id":"6197b569a7a387647ff964b9","condition":"contingent","relevant_dimensions":["pattern","legs"],"bee_group":{"antennae":"X","wings":"X","pattern":"D","legs":"M"},"bonus":0},{"rt":3331.600000000093,"stimulus":"bees-with-color/bee-A1DM.svg","response":0,"trial_type":"image-button-response","trial_index":19,"time_elapsed":499848,"internal_node_id":"0.0-4.0-0.4","subject_id":"60fe02e403ca7461c800b867","study_id":"6197b3f67c2b5cd3b6d9596a","session_id":"6197b569a7a387647ff964b9","condition":"contingent","relevant_dimensions":["pattern","legs"],"bee_group":{"antennae":"X","wings":"X","pattern":"D","legs":"M"},"action":"harvest","summary":"bad-harvest","bonus":0},{"rt":6909.399999999907,"stimulus":"\n                    <p><b>Action: <em>harvest</em></b></p>\n                    <p>This is the bee that you just saw.</p>\n                    <img src=\"bees-with-color/bee-A1DM.svg\" width=\"200\">\n                    <p><span class=\"redText\">Bad choice, the bee was angry.</span><br><b>You have been stung!</b><br>Your pay has been decreased by $0.10. Your bonus pay is now $0.52.</p>\n            ","response":0,"trial_type":"html-button-response","trial_index":20,"time_elapsed":506761,"internal_node_id":"0.0-4.0-1.4","subject_id":"60fe02e403ca7461c800b867","study_id":"6197b3f67c2b5cd3b6d9596a","session_id":"6197b569a7a387647ff964b9","condition":"contingent","relevant_dimensions":["pattern","legs"],"bee_group":{"antennae":"X","wings":"X","pattern":"D","legs":"M"},"bonus":0},{"rt":1168.3999999999069,"stimulus":"bees-with-color/bee-A1SF.svg","response":1,"trial_type":"image-button-response","trial_index":21,"time_elapsed":507934,"internal_node_id":"0.0-4.0-0.5","subject_id":"60fe02e403ca7461c800b867","study_id":"6197b3f67c2b5cd3b6d9596a","session_id":"6197b569a7a387647ff964b9","condition":"contingent","relevant_dimensions":["pattern","legs"],"bee_group":{"antennae":"X","wings":"X","pattern":"D","legs":"M"},"action":"avoid","summary":"bad-avoid","bonus":0},{"rt":6147.300000000279,"stimulus":"\n                    <p><b>Action: <em>avoid</em></b></p>\n                    <p>This is the bee that you just saw.</p>\n                    <img src=\"bees-with-color/bee-A1SF.svg\" width=\"200\">\n                    <p><br>Your bonus pay is unchanged, and remains at $0.52.</p>\n            ","response":0,"trial_type":"html-button-response","trial_index":22,"time_elapsed":514085,"internal_node_id":"0.0-4.0-1.5","subject_id":"60fe02e403ca7461c800b867","study_id":"6197b3f67c2b5cd3b6d9596a","session_id":"6197b569a7a387647ff964b9","condition":"contingent","relevant_dimensions":["pattern","legs"],"bee_group":{"antennae":"X","wings":"X","pattern":"D","legs":"M"},"bonus":0},{"rt":1828.1000000000931,"stimulus":"bees-with-color/bee-B1DM.svg","response":0,"trial_type":"image-button-response","trial_index":23,"time_elapsed":515917,"internal_node_id":"0.0-4.0-0.6","subject_id":"60fe02e403ca7461c800b867","study_id":"6197b3f67c2b5cd3b6d9596a","session_id":"6197b569a7a387647ff964b9","condition":"contingent","relevant_dimensions":["pattern","legs"],"bee_group":{"antennae":"X","wings":"X","pattern":"D","legs":"M"},"action":"harvest","summary":"bad-harvest","bonus":0},{"rt":1917.9000000003725,"stimulus":"\n                    <p><b>Action: <em>harvest</em></b></p>\n                    <p>This is the bee that you just saw.</p>\n                    <img src=\"bees-with-color/bee-B1DM.svg\" width=\"200\">\n                    <p><span class=\"redText\">Bad choice, the bee was angry.</span><br><b>You have been stung!</b><br>Your pay has been decreased by $0.10. Your bonus pay is now $0.42.</p>\n            ","response":0,"trial_type":"html-button-response","trial_index":24,"time_elapsed":517838,"internal_node_id":"0.0-4.0-1.6","subject_id":"60fe02e403ca7461c800b867","study_id":"6197b3f67c2b5cd3b6d9596a","session_id":"6197b569a7a387647ff964b9","condition":"contingent","relevant_dimensions":["pattern","legs"],"bee_group":{"antennae":"X","wings":"X","pattern":"D","legs":"M"},"bonus":0},{"rt":1587.3999999999069,"stimulus":"bees-with-color/bee-A2SF.svg","response":0,"trial_type":"image-button-response","trial_index":25,"time_elapsed":519430,"internal_node_id":"0.0-4.0-0.7","subject_id":"60fe02e403ca7461c800b867","study_id":"6197b3f67c2b5cd3b6d9596a","session_id":"6197b569a7a387647ff964b9","condition":"contingent","relevant_dimensions":["pattern","legs"],"bee_group":{"antennae":"X","wings":"X","pattern":"D","legs":"M"},"action":"harvest","summary":"good-harvest","bonus":0},{"rt":1388.3999999999069,"stimulus":"\n                    <p><b>Action: <em>harvest</em></b></p>\n                    <p>This is the bee that you just saw.</p>\n                    <img src=\"bees-with-color/bee-A2SF.svg\" width=\"200\">\n                    <p><span class=\"greenText\"><b>Successful harvest!</b></span><br>Your pay has increased by $0.02. Your bonus pay is now $0.44.</p>\n            ","response":0,"trial_type":"html-button-response","trial_index":26,"time_elapsed":520822,"internal_node_id":"0.0-4.0-1.7","subject_id":"60fe02e403ca7461c800b867","study_id":"6197b3f67c2b5cd3b6d9596a","session_id":"6197b569a7a387647ff964b9","condition":"contingent","relevant_dimensions":["pattern","legs"],"bee_group":{"antennae":"X","wings":"X","pattern":"D","legs":"M"},"bonus":0},{"rt":1104.5,"stimulus":"bees-with-color/bee-A2DM.svg","response":0,"trial_type":"image-button-response","trial_index":27,"time_elapsed":521930,"internal_node_id":"0.0-4.0-0.8","subject_id":"60fe02e403ca7461c800b867","study_id":"6197b3f67c2b5cd3b6d9596a","session_id":"6197b569a7a387647ff964b9","condition":"contingent","relevant_dimensions":["pattern","legs"],"bee_group":{"antennae":"X","wings":"X","pattern":"D","legs":"M"},"action":"harvest","summary":"bad-harvest","bonus":0},{"rt":1272.1999999997206,"stimulus":"\n                    <p><b>Action: <em>harvest</em></b></p>\n                    <p>This is the bee that you just saw.</p>\n                    <img src=\"bees-with-color/bee-A2DM.svg\" width=\"200\">\n                    <p><span class=\"redText\">Bad choice, the bee was angry.</span><br><b>You have been stung!</b><br>Your pay has been decreased by $0.10. Your bonus pay is now $0.34.</p>\n            ","response":0,"trial_type":"html-button-response","trial_index":28,"time_elapsed":523206,"internal_node_id":"0.0-4.0-1.8","subject_id":"60fe02e403ca7461c800b867","study_id":"6197b3f67c2b5cd3b6d9596a","session_id":"6197b569a7a387647ff964b9","condition":"contingent","relevant_dimensions":["pattern","legs"],"bee_group":{"antennae":"X","wings":"X","pattern":"D","legs":"M"},"bonus":0},{"rt":1949.7000000001863,"stimulus":"bees-with-color/bee-B2SF.svg","response":0,"trial_type":"image-button-response","trial_index":29,"time_elapsed":525162,"internal_node_id":"0.0-4.0-0.9","subject_id":"60fe02e403ca7461c800b867","study_id":"6197b3f67c2b5cd3b6d9596a","session_id":"6197b569a7a387647ff964b9","condition":"contingent","relevant_dimensions":["pattern","legs"],"bee_group":{"antennae":"X","wings":"X","pattern":"D","legs":"M"},"action":"harvest","summary":"good-harvest","bonus":0},{"rt":1330.7999999998137,"stimulus":"\n                    <p><b>Action: <em>harvest</em></b></p>\n                    <p>This is the bee that you just saw.</p>\n                    <img src=\"bees-with-color/bee-B2SF.svg\" width=\"200\">\n                    <p><span class=\"greenText\"><b>Successful harvest!</b></span><br>Your pay has increased by $0.02. Your bonus pay is now $0.36.</p>\n            ","response":0,"trial_type":"html-button-response","trial_index":30,"time_elapsed":526497,"internal_node_id":"0.0-4.0-1.9","subject_id":"60fe02e403ca7461c800b867","study_id":"6197b3f67c2b5cd3b6d9596a","session_id":"6197b569a7a387647ff964b9","condition":"contingent","relevant_dimensions":["pattern","legs"],"bee_group":{"antennae":"X","wings":"X","pattern":"D","legs":"M"},"bonus":0},{"rt":5635.100000000093,"stimulus":"bees-with-color/bee-B1SF.svg","response":1,"trial_type":"image-button-response","trial_index":31,"time_elapsed":532135,"internal_node_id":"0.0-4.0-0.10","subject_id":"60fe02e403ca7461c800b867","study_id":"6197b3f67c2b5cd3b6d9596a","session_id":"6197b569a7a387647ff964b9","condition":"contingent","relevant_dimensions":["pattern","legs"],"bee_group":{"antennae":"X","wings":"X","pattern":"D","legs":"M"},"action":"avoid","summary":"bad-avoid","bonus":0},{"rt":6256,"stimulus":"\n                    <p><b>Action: <em>avoid</em></b></p>\n                    <p>This is the bee that you just saw.</p>\n                    <img src=\"bees-with-color/bee-B1SF.svg\" width=\"200\">\n                    <p><br>Your bonus pay is unchanged, and remains at $0.36.</p>\n            ","response":0,"trial_type":"html-button-response","trial_index":32,"time_elapsed":538396,"internal_node_id":"0.0-4.0-1.10","subject_id":"60fe02e403ca7461c800b867","study_id":"6197b3f67c2b5cd3b6d9596a","session_id":"6197b569a7a387647ff964b9","condition":"contingent","relevant_dimensions":["pattern","legs"],"bee_group":{"antennae":"X","wings":"X","pattern":"D","legs":"M"},"bonus":0},{"rt":1050,"stimulus":"bees-with-color/bee-B2DM.svg","response":0,"trial_type":"image-button-response","trial_index":33,"time_elapsed":539450,"internal_node_id":"0.0-4.0-0.11","subject_id":"60fe02e403ca7461c800b867","study_id":"6197b3f67c2b5cd3b6d9596a","session_id":"6197b569a7a387647ff964b9","condition":"contingent","relevant_dimensions":["pattern","legs"],"bee_group":{"antennae":"X","wings":"X","pattern":"D","legs":"M"},"action":"harvest","summary":"bad-harvest","bonus":0},{"rt":2107.600000000093,"stimulus":"\n                    <p><b>Action: <em>harvest</em></b></p>\n                    <p>This is the bee that you just saw.</p>\n                    <img src=\"bees-with-color/bee-B2DM.svg\" width=\"200\">\n                    <p><span class=\"redText\">Bad choice, the bee was angry.</span><br><b>You have been stung!</b><br>Your pay has been decreased by $0.10. Your bonus pay is now $0.26.</p>\n            ","response":0,"trial_type":"html-button-response","trial_index":34,"time_elapsed":541562,"internal_node_id":"0.0-4.0-1.11","subject_id":"60fe02e403ca7461c800b867","study_id":"6197b3f67c2b5cd3b6d9596a","session_id":"6197b569a7a387647ff964b9","condition":"contingent","relevant_dimensions":["pattern","legs"],"bee_group":{"antennae":"X","wings":"X","pattern":"D","legs":"M"},"bonus":0},{"rt":1741.8999999999069,"stimulus":"bees-with-color/bee-A1DF.svg","response":0,"trial_type":"image-button-response","trial_index":35,"time_elapsed":543307,"internal_node_id":"0.0-4.0-0.12","subject_id":"60fe02e403ca7461c800b867","study_id":"6197b3f67c2b5cd3b6d9596a","session_id":"6197b569a7a387647ff964b9","condition":"contingent","relevant_dimensions":["pattern","legs"],"bee_group":{"antennae":"X","wings":"X","pattern":"D","legs":"M"},"action":"harvest","summary":"good-harvest","bonus":0},{"rt":2077.5,"stimulus":"\n                    <p><b>Action: <em>harvest</em></b></p>\n                    <p>This is the bee that you just saw.</p>\n                    <img src=\"bees-with-color/bee-A1DF.svg\" width=\"200\">\n                    <p><span class=\"greenText\"><b>Successful harvest!</b></span><br>Your pay has increased by $0.02. Your bonus pay is now $0.28.</p>\n            ","response":0,"trial_type":"html-button-response","trial_index":36,"time_elapsed":545388,"internal_node_id":"0.0-4.0-1.12","subject_id":"60fe02e403ca7461c800b867","study_id":"6197b3f67c2b5cd3b6d9596a","session_id":"6197b569a7a387647ff964b9","condition":"contingent","relevant_dimensions":["pattern","legs"],"bee_group":{"antennae":"X","wings":"X","pattern":"D","legs":"M"},"bonus":0},{"rt":1110.1999999997206,"stimulus":"bees-with-color/bee-B2SM.svg","response":0,"trial_type":"image-button-response","trial_index":37,"time_elapsed":546502,"internal_node_id":"0.0-4.0-0.13","subject_id":"60fe02e403ca7461c800b867","study_id":"6197b3f67c2b5cd3b6d9596a","session_id":"6197b569a7a387647ff964b9","condition":"contingent","relevant_dimensions":["pattern","legs"],"bee_group":{"antennae":"X","wings":"X","pattern":"D","legs":"M"},"action":"harvest","summary":"good-harvest","bonus":0},{"rt":1966.8999999999069,"stimulus":"\n                    <p><b>Action: <em>harvest</em></b></p>\n                    <p>This is the bee that you just saw.</p>\n                    <img src=\"bees-with-color/bee-B2SM.svg\" width=\"200\">\n                    <p><span class=\"greenText\"><b>Successful harvest!</b></span><br>Your pay has increased by $0.02. Your bonus pay is now $0.30.</p>\n            ","response":0,"trial_type":"html-button-response","trial_index":38,"time_elapsed":548476,"internal_node_id":"0.0-4.0-1.13","subject_id":"60fe02e403ca7461c800b867","study_id":"6197b3f67c2b5cd3b6d9596a","session_id":"6197b569a7a387647ff964b9","condition":"contingent","relevant_dimensions":["pattern","legs"],"bee_group":{"antennae":"X","wings":"X","pattern":"D","legs":"M"},"bonus":0},{"rt":3176.600000000093,"stimulus":"bees-with-color/bee-A2SM.svg","response":1,"trial_type":"image-button-response","trial_index":39,"time_elapsed":551653,"internal_node_id":"0.0-4.0-0.14","subject_id":"60fe02e403ca7461c800b867","study_id":"6197b3f67c2b5cd3b6d9596a","session_id":"6197b569a7a387647ff964b9","condition":"contingent","relevant_dimensions":["pattern","legs"],"bee_group":{"antennae":"X","wings":"X","pattern":"D","legs":"M"},"action":"avoid","summary":"bad-avoid","bonus":0},{"rt":2282.6999999997206,"stimulus":"\n                    <p><b>Action: <em>avoid</em></b></p>\n                    <p>This is the bee that you just saw.</p>\n                    <img src=\"bees-with-color/bee-A2SM.svg\" width=\"200\">\n                    <p><br>Your bonus pay is unchanged, and remains at $0.30.</p>\n            ","response":0,"trial_type":"html-button-response","trial_index":40,"time_elapsed":553940,"internal_node_id":"0.0-4.0-1.14","subject_id":"60fe02e403ca7461c800b867","study_id":"6197b3f67c2b5cd3b6d9596a","session_id":"6197b569a7a387647ff964b9","condition":"contingent","relevant_dimensions":["pattern","legs"],"bee_group":{"antennae":"X","wings":"X","pattern":"D","legs":"M"},"bonus":0},{"rt":918.0999999996275,"stimulus":"bees-with-color/bee-B2DF.svg","response":0,"trial_type":"image-button-response","trial_index":41,"time_elapsed":554864,"internal_node_id":"0.0-4.0-0.15","subject_id":"60fe02e403ca7461c800b867","study_id":"6197b3f67c2b5cd3b6d9596a","session_id":"6197b569a7a387647ff964b9","condition":"contingent","relevant_dimensions":["pattern","legs"],"bee_group":{"antennae":"X","wings":"X","pattern":"D","legs":"M"},"action":"harvest","summary":"good-harvest","bonus":0},{"rt":1462,"stimulus":"\n                    <p><b>Action: <em>harvest</em></b></p>\n                    <p>This is the bee that you just saw.</p>\n                    <img src=\"bees-with-color/bee-B2DF.svg\" width=\"200\">\n                    <p><span class=\"greenText\"><b>Successful harvest!</b></span><br>Your pay has increased by $0.02. Your bonus pay is now $0.32.</p>\n            ","response":0,"trial_type":"html-button-response","trial_index":42,"time_elapsed":556330,"internal_node_id":"0.0-4.0-1.15","subject_id":"60fe02e403ca7461c800b867","study_id":"6197b3f67c2b5cd3b6d9596a","session_id":"6197b569a7a387647ff964b9","condition":"contingent","relevant_dimensions":["pattern","legs"],"bee_group":{"antennae":"X","wings":"X","pattern":"D","legs":"M"},"bonus":0},{"rt":972.2999999998137,"stimulus":"bees-with-color/bee-A2SM.svg","response":0,"trial_type":"image-button-response","trial_index":43,"time_elapsed":557305,"internal_node_id":"0.0-4.0-0.16","subject_id":"60fe02e403ca7461c800b867","study_id":"6197b3f67c2b5cd3b6d9596a","session_id":"6197b569a7a387647ff964b9","condition":"contingent","relevant_dimensions":["pattern","legs"],"bee_group":{"antennae":"X","wings":"X","pattern":"D","legs":"M"},"action":"harvest","summary":"good-harvest","bonus":0},{"rt":1744.1000000000931,"stimulus":"\n                    <p><b>Action: <em>harvest</em></b></p>\n                    <p>This is the bee that you just saw.</p>\n                    <img src=\"bees-with-color/bee-A2SM.svg\" width=\"200\">\n                    <p><span class=\"greenText\"><b>Successful harvest!</b></span><br>Your pay has increased by $0.02. Your bonus pay is now $0.34.</p>\n            ","response":0,"trial_type":"html-button-response","trial_index":44,"time_elapsed":559053,"internal_node_id":"0.0-4.0-1.16","subject_id":"60fe02e403ca7461c800b867","study_id":"6197b3f67c2b5cd3b6d9596a","session_id":"6197b569a7a387647ff964b9","condition":"contingent","relevant_dimensions":["pattern","legs"],"bee_group":{"antennae":"X","wings":"X","pattern":"D","legs":"M"},"bonus":0},{"rt":4302.299999999814,"stimulus":"bees-with-color/bee-A2DF.svg","response":0,"trial_type":"image-button-response","trial_index":45,"time_elapsed":563360,"internal_node_id":"0.0-4.0-0.17","subject_id":"60fe02e403ca7461c800b867","study_id":"6197b3f67c2b5cd3b6d9596a","session_id":"6197b569a7a387647ff964b9","condition":"contingent","relevant_dimensions":["pattern","legs"],"bee_group":{"antennae":"X","wings":"X","pattern":"D","legs":"M"},"action":"harvest","summary":"good-harvest","bonus":0},{"rt":1594.8999999999069,"stimulus":"\n                    <p><b>Action: <em>harvest</em></b></p>\n                    <p>This is the bee that you just saw.</p>\n                    <img src=\"bees-with-color/bee-A2DF.svg\" width=\"200\">\n                    <p><span class=\"greenText\"><b>Successful harvest!</b></span><br>Your pay has increased by $0.02. Your bonus pay is now $0.36.</p>\n            ","response":0,"trial_type":"html-button-response","trial_index":46,"time_elapsed":564958,"internal_node_id":"0.0-4.0-1.17","subject_id":"60fe02e403ca7461c800b867","study_id":"6197b3f67c2b5cd3b6d9596a","session_id":"6197b569a7a387647ff964b9","condition":"contingent","relevant_dimensions":["pattern","legs"],"bee_group":{"antennae":"X","wings":"X","pattern":"D","legs":"M"},"bonus":0},{"rt":1799.3999999999069,"stimulus":"bees-with-color/bee-A1SM.svg","response":1,"trial_type":"image-button-response","trial_index":47,"time_elapsed":566761,"internal_node_id":"0.0-4.0-0.18","subject_id":"60fe02e403ca7461c800b867","study_id":"6197b3f67c2b5cd3b6d9596a","session_id":"6197b569a7a387647ff964b9","condition":"contingent","relevant_dimensions":["pattern","legs"],"bee_group":{"antennae":"X","wings":"X","pattern":"D","legs":"M"},"action":"avoid","summary":"bad-avoid","bonus":0},{"rt":1763.7999999998137,"stimulus":"\n                    <p><b>Action: <em>avoid</em></b></p>\n                    <p>This is the bee that you just saw.</p>\n                    <img src=\"bees-with-color/bee-A1SM.svg\" width=\"200\">\n                    <p><br>Your bonus pay is unchanged, and remains at $0.36.</p>\n            ","response":0,"trial_type":"html-button-response","trial_index":48,"time_elapsed":568528,"internal_node_id":"0.0-4.0-1.18","subject_id":"60fe02e403ca7461c800b867","study_id":"6197b3f67c2b5cd3b6d9596a","session_id":"6197b569a7a387647ff964b9","condition":"contingent","relevant_dimensions":["pattern","legs"],"bee_group":{"antennae":"X","wings":"X","pattern":"D","legs":"M"},"bonus":0},{"rt":1453.3999999999069,"stimulus":"bees-with-color/bee-B2SF.svg","response":1,"trial_type":"image-button-response","trial_index":49,"time_elapsed":569987,"internal_node_id":"0.0-4.0-0.19","subject_id":"60fe02e403ca7461c800b867","study_id":"6197b3f67c2b5cd3b6d9596a","session_id":"6197b569a7a387647ff964b9","condition":"contingent","relevant_dimensions":["pattern","legs"],"bee_group":{"antennae":"X","wings":"X","pattern":"D","legs":"M"},"action":"avoid","summary":"bad-avoid","bonus":0},{"rt":2863.100000000093,"stimulus":"\n                    <p><b>Action: <em>avoid</em></b></p>\n                    <p>This is the bee that you just saw.</p>\n                    <img src=\"bees-with-color/bee-B2SF.svg\" width=\"200\">\n                    <p><br>Your bonus pay is unchanged, and remains at $0.36.</p>\n            ","response":0,"trial_type":"html-button-response","trial_index":50,"time_elapsed":572853,"internal_node_id":"0.0-4.0-1.19","subject_id":"60fe02e403ca7461c800b867","study_id":"6197b3f67c2b5cd3b6d9596a","session_id":"6197b569a7a387647ff964b9","condition":"contingent","relevant_dimensions":["pattern","legs"],"bee_group":{"antennae":"X","wings":"X","pattern":"D","legs":"M"},"bonus":0},{"rt":875.7000000001863,"stimulus":"bees-with-color/bee-B1DM.svg","response":0,"trial_type":"image-button-response","trial_index":51,"time_elapsed":573733,"internal_node_id":"0.0-4.0-0.20","subject_id":"60fe02e403ca7461c800b867","study_id":"6197b3f67c2b5cd3b6d9596a","session_id":"6197b569a7a387647ff964b9","condition":"contingent","relevant_dimensions":["pattern","legs"],"bee_group":{"antennae":"X","wings":"X","pattern":"D","legs":"M"},"action":"harvest","summary":"bad-harvest","bonus":0},{"rt":7854.899999999907,"stimulus":"\n                    <p><b>Action: <em>harvest</em></b></p>\n                    <p>This is the bee that you just saw.</p>\n                    <img src=\"bees-with-color/bee-B1DM.svg\" width=\"200\">\n                    <p><span class=\"redText\">Bad choice, the bee was angry.</span><br><b>You have been stung!</b><br>Your pay has been decreased by $0.10. Your bonus pay is now $0.26.</p>\n            ","response":0,"trial_type":"html-button-response","trial_index":52,"time_elapsed":581591,"internal_node_id":"0.0-4.0-1.20","subject_id":"60fe02e403ca7461c800b867","study_id":"6197b3f67c2b5cd3b6d9596a","session_id":"6197b569a7a387647ff964b9","condition":"contingent","relevant_dimensions":["pattern","legs"],"bee_group":{"antennae":"X","wings":"X","pattern":"D","legs":"M"},"bonus":0},{"rt":1777.7000000001863,"stimulus":"bees-with-color/bee-B2SM.svg","response":0,"trial_type":"image-button-response","trial_index":53,"time_elapsed":583373,"internal_node_id":"0.0-4.0-0.21","subject_id":"60fe02e403ca7461c800b867","study_id":"6197b3f67c2b5cd3b6d9596a","session_id":"6197b569a7a387647ff964b9","condition":"contingent","relevant_dimensions":["pattern","legs"],"bee_group":{"antennae":"X","wings":"X","pattern":"D","legs":"M"},"action":"harvest","summary":"good-harvest","bonus":0},{"rt":1631.6000000000931,"stimulus":"\n                    <p><b>Action: <em>harvest</em></b></p>\n                    <p>This is the bee that you just saw.</p>\n                    <img src=\"bees-with-color/bee-B2SM.svg\" width=\"200\">\n                    <p><span class=\"greenText\"><b>Successful harvest!</b></span><br>Your pay has increased by $0.02. Your bonus pay is now $0.28.</p>\n            ","response":0,"trial_type":"html-button-response","trial_index":54,"time_elapsed":585008,"internal_node_id":"0.0-4.0-1.21","subject_id":"60fe02e403ca7461c800b867","study_id":"6197b3f67c2b5cd3b6d9596a","session_id":"6197b569a7a387647ff964b9","condition":"contingent","relevant_dimensions":["pattern","legs"],"bee_group":{"antennae":"X","wings":"X","pattern":"D","legs":"M"},"bonus":0},{"rt":1331,"stimulus":"bees-with-color/bee-B1DF.svg","response":0,"trial_type":"image-button-response","trial_index":55,"time_elapsed":586342,"internal_node_id":"0.0-4.0-0.22","subject_id":"60fe02e403ca7461c800b867","study_id":"6197b3f67c2b5cd3b6d9596a","session_id":"6197b569a7a387647ff964b9","condition":"contingent","relevant_dimensions":["pattern","legs"],"bee_group":{"antennae":"X","wings":"X","pattern":"D","legs":"M"},"action":"harvest","summary":"good-harvest","bonus":0},{"rt":1533.7999999998137,"stimulus":"\n                    <p><b>Action: <em>harvest</em></b></p>\n                    <p>This is the bee that you just saw.</p>\n                    <img src=\"bees-with-color/bee-B1DF.svg\" width=\"200\">\n                    <p><span class=\"greenText\"><b>Successful harvest!</b></span><br>Your pay has increased by $0.02. Your bonus pay is now $0.30.</p>\n            ","response":0,"trial_type":"html-button-response","trial_index":56,"time_elapsed":587881,"internal_node_id":"0.0-4.0-1.22","subject_id":"60fe02e403ca7461c800b867","study_id":"6197b3f67c2b5cd3b6d9596a","session_id":"6197b569a7a387647ff964b9","condition":"contingent","relevant_dimensions":["pattern","legs"],"bee_group":{"antennae":"X","wings":"X","pattern":"D","legs":"M"},"bonus":0},{"rt":1550.7000000001863,"stimulus":"bees-with-color/bee-B2DM.svg","response":0,"trial_type":"image-button-response","trial_index":57,"time_elapsed":589436,"internal_node_id":"0.0-4.0-0.23","subject_id":"60fe02e403ca7461c800b867","study_id":"6197b3f67c2b5cd3b6d9596a","session_id":"6197b569a7a387647ff964b9","condition":"contingent","relevant_dimensions":["pattern","legs"],"bee_group":{"antennae":"X","wings":"X","pattern":"D","legs":"M"},"action":"harvest","summary":"bad-harvest","bonus":0},{"rt":2106,"stimulus":"\n                    <p><b>Action: <em>harvest</em></b></p>\n                    <p>This is the bee that you just saw.</p>\n                    <img src=\"bees-with-color/bee-B2DM.svg\" width=\"200\">\n                    <p><span class=\"redText\">Bad choice, the bee was angry.</span><br><b>You have been stung!</b><br>Your pay has been decreased by $0.10. Your bonus pay is now $0.20.</p>\n            ","response":0,"trial_type":"html-button-response","trial_index":58,"time_elapsed":591547,"internal_node_id":"0.0-4.0-1.23","subject_id":"60fe02e403ca7461c800b867","study_id":"6197b3f67c2b5cd3b6d9596a","session_id":"6197b569a7a387647ff964b9","condition":"contingent","relevant_dimensions":["pattern","legs"],"bee_group":{"antennae":"X","wings":"X","pattern":"D","legs":"M"},"bonus":0},{"rt":1447.6999999997206,"stimulus":"bees-with-color/bee-A2DM.svg","response":0,"trial_type":"image-button-response","trial_index":59,"time_elapsed":592999,"internal_node_id":"0.0-4.0-0.24","subject_id":"60fe02e403ca7461c800b867","study_id":"6197b3f67c2b5cd3b6d9596a","session_id":"6197b569a7a387647ff964b9","condition":"contingent","relevant_dimensions":["pattern","legs"],"bee_group":{"antennae":"X","wings":"X","pattern":"D","legs":"M"},"action":"harvest","summary":"bad-harvest","bonus":0},{"rt":1777.3999999999069,"stimulus":"\n                    <p><b>Action: <em>harvest</em></b></p>\n                    <p>This is the bee that you just saw.</p>\n                    <img src=\"bees-with-color/bee-A2DM.svg\" width=\"200\">\n                    <p><span class=\"redText\">Bad choice, the bee was angry.</span><br><b>You have been stung!</b><br>Your pay has been decreased by $0.10. Your bonus pay is now $0.10.</p>\n            ","response":0,"trial_type":"html-button-response","trial_index":60,"time_elapsed":594781,"internal_node_id":"0.0-4.0-1.24","subject_id":"60fe02e403ca7461c800b867","study_id":"6197b3f67c2b5cd3b6d9596a","session_id":"6197b569a7a387647ff964b9","condition":"contingent","relevant_dimensions":["pattern","legs"],"bee_group":{"antennae":"X","wings":"X","pattern":"D","legs":"M"},"bonus":0},{"rt":1519.7999999998137,"stimulus":"bees-with-color/bee-A1SF.svg","response":1,"trial_type":"image-button-response","trial_index":61,"time_elapsed":596305,"internal_node_id":"0.0-4.0-0.25","subject_id":"60fe02e403ca7461c800b867","study_id":"6197b3f67c2b5cd3b6d9596a","session_id":"6197b569a7a387647ff964b9","condition":"contingent","relevant_dimensions":["pattern","legs"],"bee_group":{"antennae":"X","wings":"X","pattern":"D","legs":"M"},"action":"avoid","summary":"bad-avoid","bonus":0},{"rt":1263.6000000000931,"stimulus":"\n                    <p><b>Action: <em>avoid</em></b></p>\n                    <p>This is the bee that you just saw.</p>\n                    <img src=\"bees-with-color/bee-A1SF.svg\" width=\"200\">\n                    <p><br>Your bonus pay is unchanged, and remains at $0.10.</p>\n            ","response":0,"trial_type":"html-button-response","trial_index":62,"time_elapsed":597574,"internal_node_id":"0.0-4.0-1.25","subject_id":"60fe02e403ca7461c800b867","study_id":"6197b3f67c2b5cd3b6d9596a","session_id":"6197b569a7a387647ff964b9","condition":"contingent","relevant_dimensions":["pattern","legs"],"bee_group":{"antennae":"X","wings":"X","pattern":"D","legs":"M"},"bonus":0},{"rt":999.3000000002794,"stimulus":"bees-with-color/bee-A2SF.svg","response":0,"trial_type":"image-button-response","trial_index":63,"time_elapsed":598577,"internal_node_id":"0.0-4.0-0.26","subject_id":"60fe02e403ca7461c800b867","study_id":"6197b3f67c2b5cd3b6d9596a","session_id":"6197b569a7a387647ff964b9","condition":"contingent","relevant_dimensions":["pattern","legs"],"bee_group":{"antennae":"X","wings":"X","pattern":"D","legs":"M"},"action":"harvest","summary":"good-harvest","bonus":0},{"rt":1469.8999999999069,"stimulus":"\n                    <p><b>Action: <em>harvest</em></b></p>\n                    <p>This is the bee that you just saw.</p>\n                    <img src=\"bees-with-color/bee-A2SF.svg\" width=\"200\">\n                    <p><span class=\"greenText\"><b>Successful harvest!</b></span><br>Your pay has increased by $0.02. Your bonus pay is now $0.12.</p>\n            ","response":0,"trial_type":"html-button-response","trial_index":64,"time_elapsed":600050,"internal_node_id":"0.0-4.0-1.26","subject_id":"60fe02e403ca7461c800b867","study_id":"6197b3f67c2b5cd3b6d9596a","session_id":"6197b569a7a387647ff964b9","condition":"contingent","relevant_dimensions":["pattern","legs"],"bee_group":{"antennae":"X","wings":"X","pattern":"D","legs":"M"},"bonus":0},{"rt":1842.0999999996275,"stimulus":"bees-with-color/bee-B1SM.svg","response":0,"trial_type":"image-button-response","trial_index":65,"time_elapsed":601898,"internal_node_id":"0.0-4.0-0.27","subject_id":"60fe02e403ca7461c800b867","study_id":"6197b3f67c2b5cd3b6d9596a","session_id":"6197b569a7a387647ff964b9","condition":"contingent","relevant_dimensions":["pattern","legs"],"bee_group":{"antennae":"X","wings":"X","pattern":"D","legs":"M"},"action":"harvest","summary":"good-harvest","bonus":0},{"rt":1682,"stimulus":"\n                    <p><b>Action: <em>harvest</em></b></p>\n                    <p>This is the bee that you just saw.</p>\n                    <img src=\"bees-with-color/bee-B1SM.svg\" width=\"200\">\n                    <p><span class=\"greenText\"><b>Successful harvest!</b></span><br>Your pay has increased by $0.02. Your bonus pay is now $0.14.</p>\n            ","response":0,"trial_type":"html-button-response","trial_index":66,"time_elapsed":603584,"internal_node_id":"0.0-4.0-1.27","subject_id":"60fe02e403ca7461c800b867","study_id":"6197b3f67c2b5cd3b6d9596a","session_id":"6197b569a7a387647ff964b9","condition":"contingent","relevant_dimensions":["pattern","legs"],"bee_group":{"antennae":"X","wings":"X","pattern":"D","legs":"M"},"bonus":0},{"rt":1697.5,"stimulus":"bees-with-color/bee-A1DM.svg","response":1,"trial_type":"image-button-response","trial_index":67,"time_elapsed":605284,"internal_node_id":"0.0-4.0-0.28","subject_id":"60fe02e403ca7461c800b867","study_id":"6197b3f67c2b5cd3b6d9596a","session_id":"6197b569a7a387647ff964b9","condition":"contingent","relevant_dimensions":["pattern","legs"],"bee_group":{"antennae":"X","wings":"X","pattern":"D","legs":"M"},"action":"avoid","summary":"good-avoid","bonus":0},{"rt":1624.0999999996275,"stimulus":"\n                    <p><b>Action: <em>avoid</em></b></p>\n                    <p>This is the bee that you just saw.</p>\n                    <img src=\"bees-with-color/bee-A1DM.svg\" width=\"200\">\n                    <p><br>Your bonus pay is unchanged, and remains at $0.14.</p>\n            ","response":0,"trial_type":"html-button-response","trial_index":68,"time_elapsed":606912,"internal_node_id":"0.0-4.0-1.28","subject_id":"60fe02e403ca7461c800b867","study_id":"6197b3f67c2b5cd3b6d9596a","session_id":"6197b569a7a387647ff964b9","condition":"contingent","relevant_dimensions":["pattern","legs"],"bee_group":{"antennae":"X","wings":"X","pattern":"D","legs":"M"},"bonus":0},{"rt":1073.6999999997206,"stimulus":"bees-with-color/bee-B1SF.svg","response":1,"trial_type":"image-button-response","trial_index":69,"time_elapsed":607989,"internal_node_id":"0.0-4.0-0.29","subject_id":"60fe02e403ca7461c800b867","study_id":"6197b3f67c2b5cd3b6d9596a","session_id":"6197b569a7a387647ff964b9","condition":"contingent","relevant_dimensions":["pattern","legs"],"bee_group":{"antennae":"X","wings":"X","pattern":"D","legs":"M"},"action":"avoid","summary":"bad-avoid","bonus":0},{"rt":1734,"stimulus":"\n                    <p><b>Action: <em>avoid</em></b></p>\n                    <p>This is the bee that you just saw.</p>\n                    <img src=\"bees-with-color/bee-B1SF.svg\" width=\"200\">\n                    <p><br>Your bonus pay is unchanged, and remains at $0.14.</p>\n            ","response":0,"trial_type":"html-button-response","trial_index":70,"time_elapsed":609727,"internal_node_id":"0.0-4.0-1.29","subject_id":"60fe02e403ca7461c800b867","study_id":"6197b3f67c2b5cd3b6d9596a","session_id":"6197b569a7a387647ff964b9","condition":"contingent","relevant_dimensions":["pattern","legs"],"bee_group":{"antennae":"X","wings":"X","pattern":"D","legs":"M"},"bonus":0},{"rt":1235.3999999999069,"stimulus":"bees-with-color/bee-A1DF.svg","response":1,"trial_type":"image-button-response","trial_index":71,"time_elapsed":610966,"internal_node_id":"0.0-4.0-0.30","subject_id":"60fe02e403ca7461c800b867","study_id":"6197b3f67c2b5cd3b6d9596a","session_id":"6197b569a7a387647ff964b9","condition":"contingent","relevant_dimensions":["pattern","legs"],"bee_group":{"antennae":"X","wings":"X","pattern":"D","legs":"M"},"action":"avoid","summary":"bad-avoid","bonus":0},{"rt":1044.8000000002794,"stimulus":"\n                    <p><b>Action: <em>avoid</em></b></p>\n                    <p>This is the bee that you just saw.</p>\n                    <img src=\"bees-with-color/bee-A1DF.svg\" width=\"200\">\n                    <p><br>Your bonus pay is unchanged, and remains at $0.14.</p>\n            ","response":0,"trial_type":"html-button-response","trial_index":72,"time_elapsed":612020,"internal_node_id":"0.0-4.0-1.30","subject_id":"60fe02e403ca7461c800b867","study_id":"6197b3f67c2b5cd3b6d9596a","session_id":"6197b569a7a387647ff964b9","condition":"contingent","relevant_dimensions":["pattern","legs"],"bee_group":{"antennae":"X","wings":"X","pattern":"D","legs":"M"},"bonus":0},{"rt":891.6999999997206,"stimulus":"bees-with-color/bee-B2DF.svg","response":0,"trial_type":"image-button-response","trial_index":73,"time_elapsed":612915,"internal_node_id":"0.0-4.0-0.31","subject_id":"60fe02e403ca7461c800b867","study_id":"6197b3f67c2b5cd3b6d9596a","session_id":"6197b569a7a387647ff964b9","condition":"contingent","relevant_dimensions":["pattern","legs"],"bee_group":{"antennae":"X","wings":"X","pattern":"D","legs":"M"},"action":"harvest","summary":"good-harvest","bonus":0},{"rt":1402.2999999998137,"stimulus":"\n                    <p><b>Action: <em>harvest</em></b></p>\n                    <p>This is the bee that you just saw.</p>\n                    <img src=\"bees-with-color/bee-B2DF.svg\" width=\"200\">\n                    <p><span class=\"greenText\"><b>Successful harvest!</b></span><br>Your pay has increased by $0.02. Your bonus pay is now $0.16.</p>\n            ","response":0,"trial_type":"html-button-response","trial_index":74,"time_elapsed":614321,"internal_node_id":"0.0-4.0-1.31","subject_id":"60fe02e403ca7461c800b867","study_id":"6197b3f67c2b5cd3b6d9596a","session_id":"6197b569a7a387647ff964b9","condition":"contingent","relevant_dimensions":["pattern","legs"],"bee_group":{"antennae":"X","wings":"X","pattern":"D","legs":"M"},"bonus":0},{"rt":1602.6000000000931,"stimulus":"bees-with-color/bee-A1SM.svg","response":1,"trial_type":"image-button-response","trial_index":75,"time_elapsed":615927,"internal_node_id":"0.0-4.0-0.32","subject_id":"60fe02e403ca7461c800b867","study_id":"6197b3f67c2b5cd3b6d9596a","session_id":"6197b569a7a387647ff964b9","condition":"contingent","relevant_dimensions":["pattern","legs"],"bee_group":{"antennae":"X","wings":"X","pattern":"D","legs":"M"},"action":"avoid","summary":"bad-avoid","bonus":0},{"rt":1433.1999999997206,"stimulus":"\n                    <p><b>Action: <em>avoid</em></b></p>\n                    <p>This is the bee that you just saw.</p>\n                    <img src=\"bees-with-color/bee-A1SM.svg\" width=\"200\">\n                    <p><br>Your bonus pay is unchanged, and remains at $0.16.</p>\n            ","response":0,"trial_type":"html-button-response","trial_index":76,"time_elapsed":617364,"internal_node_id":"0.0-4.0-1.32","subject_id":"60fe02e403ca7461c800b867","study_id":"6197b3f67c2b5cd3b6d9596a","session_id":"6197b569a7a387647ff964b9","condition":"contingent","relevant_dimensions":["pattern","legs"],"bee_group":{"antennae":"X","wings":"X","pattern":"D","legs":"M"},"bonus":0},{"rt":832.1000000000931,"stimulus":"bees-with-color/bee-A2DM.svg","response":1,"trial_type":"image-button-response","trial_index":77,"time_elapsed":618200,"internal_node_id":"0.0-4.0-0.33","subject_id":"60fe02e403ca7461c800b867","study_id":"6197b3f67c2b5cd3b6d9596a","session_id":"6197b569a7a387647ff964b9","condition":"contingent","relevant_dimensions":["pattern","legs"],"bee_group":{"antennae":"X","wings":"X","pattern":"D","legs":"M"},"action":"avoid","summary":"good-avoid","bonus":0},{"rt":3901.100000000093,"stimulus":"\n                    <p><b>Action: <em>avoid</em></b></p>\n                    <p>This is the bee that you just saw.</p>\n                    <img src=\"bees-with-color/bee-A2DM.svg\" width=\"200\">\n                    <p><br>Your bonus pay is unchanged, and remains at $0.16.</p>\n            ","response":0,"trial_type":"html-button-response","trial_index":78,"time_elapsed":622107,"internal_node_id":"0.0-4.0-1.33","subject_id":"60fe02e403ca7461c800b867","study_id":"6197b3f67c2b5cd3b6d9596a","session_id":"6197b569a7a387647ff964b9","condition":"contingent","relevant_dimensions":["pattern","legs"],"bee_group":{"antennae":"X","wings":"X","pattern":"D","legs":"M"},"bonus":0},{"rt":1140,"stimulus":"bees-with-color/bee-B2DF.svg","response":1,"trial_type":"image-button-response","trial_index":79,"time_elapsed":623251,"internal_node_id":"0.0-4.0-0.34","subject_id":"60fe02e403ca7461c800b867","study_id":"6197b3f67c2b5cd3b6d9596a","session_id":"6197b569a7a387647ff964b9","condition":"contingent","relevant_dimensions":["pattern","legs"],"bee_group":{"antennae":"X","wings":"X","pattern":"D","legs":"M"},"action":"avoid","summary":"bad-avoid","bonus":0},{"rt":1250.4000000003725,"stimulus":"\n                    <p><b>Action: <em>avoid</em></b></p>\n                    <p>This is the bee that you just saw.</p>\n                    <img src=\"bees-with-color/bee-B2DF.svg\" width=\"200\">\n                    <p><br>Your bonus pay is unchanged, and remains at $0.16.</p>\n            ","response":0,"trial_type":"html-button-response","trial_index":80,"time_elapsed":624504,"internal_node_id":"0.0-4.0-1.34","subject_id":"60fe02e403ca7461c800b867","study_id":"6197b3f67c2b5cd3b6d9596a","session_id":"6197b569a7a387647ff964b9","condition":"contingent","relevant_dimensions":["pattern","legs"],"bee_group":{"antennae":"X","wings":"X","pattern":"D","legs":"M"},"bonus":0},{"rt":1317,"stimulus":"bees-with-color/bee-B2DM.svg","response":0,"trial_type":"image-button-response","trial_index":81,"time_elapsed":625824,"internal_node_id":"0.0-4.0-0.35","subject_id":"60fe02e403ca7461c800b867","study_id":"6197b3f67c2b5cd3b6d9596a","session_id":"6197b569a7a387647ff964b9","condition":"contingent","relevant_dimensions":["pattern","legs"],"bee_group":{"antennae":"X","wings":"X","pattern":"D","legs":"M"},"action":"harvest","summary":"bad-harvest","bonus":0},{"rt":2555.600000000093,"stimulus":"\n                    <p><b>Action: <em>harvest</em></b></p>\n                    <p>This is the bee that you just saw.</p>\n                    <img src=\"bees-with-color/bee-B2DM.svg\" width=\"200\">\n                    <p><span class=\"redText\">Bad choice, the bee was angry.</span><br><b>You have been stung!</b><br>Your pay has been decreased by $0.10. Your bonus pay is now $0.06.</p>\n            ","response":0,"trial_type":"html-button-response","trial_index":82,"time_elapsed":628384,"internal_node_id":"0.0-4.0-1.35","subject_id":"60fe02e403ca7461c800b867","study_id":"6197b3f67c2b5cd3b6d9596a","session_id":"6197b569a7a387647ff964b9","condition":"contingent","relevant_dimensions":["pattern","legs"],"bee_group":{"antennae":"X","wings":"X","pattern":"D","legs":"M"},"bonus":0},{"rt":1233.3999999999069,"stimulus":"bees-with-color/bee-A1DF.svg","response":0,"trial_type":"image-button-response","trial_index":83,"time_elapsed":629621,"internal_node_id":"0.0-4.0-0.36","subject_id":"60fe02e403ca7461c800b867","study_id":"6197b3f67c2b5cd3b6d9596a","session_id":"6197b569a7a387647ff964b9","condition":"contingent","relevant_dimensions":["pattern","legs"],"bee_group":{"antennae":"X","wings":"X","pattern":"D","legs":"M"},"action":"harvest","summary":"good-harvest","bonus":0},{"rt":1720.3999999999069,"stimulus":"\n                    <p><b>Action: <em>harvest</em></b></p>\n                    <p>This is the bee that you just saw.</p>\n                    <img src=\"bees-with-color/bee-A1DF.svg\" width=\"200\">\n                    <p><span class=\"greenText\"><b>Successful harvest!</b></span><br>Your pay has increased by $0.02. Your bonus pay is now $0.08.</p>\n            ","response":0,"trial_type":"html-button-response","trial_index":84,"time_elapsed":631345,"internal_node_id":"0.0-4.0-1.36","subject_id":"60fe02e403ca7461c800b867","study_id":"6197b3f67c2b5cd3b6d9596a","session_id":"6197b569a7a387647ff964b9","condition":"contingent","relevant_dimensions":["pattern","legs"],"bee_group":{"antennae":"X","wings":"X","pattern":"D","legs":"M"},"bonus":0},{"rt":1081.1000000000931,"stimulus":"bees-with-color/bee-B1SF.svg","response":0,"trial_type":"image-button-response","trial_index":85,"time_elapsed":632429,"internal_node_id":"0.0-4.0-0.37","subject_id":"60fe02e403ca7461c800b867","study_id":"6197b3f67c2b5cd3b6d9596a","session_id":"6197b569a7a387647ff964b9","condition":"contingent","relevant_dimensions":["pattern","legs"],"bee_group":{"antennae":"X","wings":"X","pattern":"D","legs":"M"},"action":"harvest","summary":"good-harvest","bonus":0},{"rt":3493.899999999907,"stimulus":"\n                    <p><b>Action: <em>harvest</em></b></p>\n                    <p>This is the bee that you just saw.</p>\n                    <img src=\"bees-with-color/bee-B1SF.svg\" width=\"200\">\n                    <p><span class=\"greenText\"><b>Successful harvest!</b></span><br>Your pay has increased by $0.02. Your bonus pay is now $0.10.</p>\n            ","response":0,"trial_type":"html-button-response","trial_index":86,"time_elapsed":635926,"internal_node_id":"0.0-4.0-1.37","subject_id":"60fe02e403ca7461c800b867","study_id":"6197b3f67c2b5cd3b6d9596a","session_id":"6197b569a7a387647ff964b9","condition":"contingent","relevant_dimensions":["pattern","legs"],"bee_group":{"antennae":"X","wings":"X","pattern":"D","legs":"M"},"bonus":0},{"rt":1315.7000000001863,"stimulus":"bees-with-color/bee-B1SM.svg","response":1,"trial_type":"image-button-response","trial_index":87,"time_elapsed":637246,"internal_node_id":"0.0-4.0-0.38","subject_id":"60fe02e403ca7461c800b867","study_id":"6197b3f67c2b5cd3b6d9596a","session_id":"6197b569a7a387647ff964b9","condition":"contingent","relevant_dimensions":["pattern","legs"],"bee_group":{"antennae":"X","wings":"X","pattern":"D","legs":"M"},"action":"avoid","summary":"bad-avoid","bonus":0},{"rt":1035.8000000002794,"stimulus":"\n                    <p><b>Action: <em>avoid</em></b></p>\n                    <p>This is the bee that you just saw.</p>\n                    <img src=\"bees-with-color/bee-B1SM.svg\" width=\"200\">\n                    <p><br>Your bonus pay is unchanged, and remains at $0.10.</p>\n            ","response":0,"trial_type":"html-button-response","trial_index":88,"time_elapsed":638287,"internal_node_id":"0.0-4.0-1.38","subject_id":"60fe02e403ca7461c800b867","study_id":"6197b3f67c2b5cd3b6d9596a","session_id":"6197b569a7a387647ff964b9","condition":"contingent","relevant_dimensions":["pattern","legs"],"bee_group":{"antennae":"X","wings":"X","pattern":"D","legs":"M"},"bonus":0},{"rt":847.6999999997206,"stimulus":"bees-with-color/bee-A2SM.svg","response":1,"trial_type":"image-button-response","trial_index":89,"time_elapsed":639138,"internal_node_id":"0.0-4.0-0.39","subject_id":"60fe02e403ca7461c800b867","study_id":"6197b3f67c2b5cd3b6d9596a","session_id":"6197b569a7a387647ff964b9","condition":"contingent","relevant_dimensions":["pattern","legs"],"bee_group":{"antennae":"X","wings":"X","pattern":"D","legs":"M"},"action":"avoid","summary":"bad-avoid","bonus":0},{"rt":883.6999999997206,"stimulus":"\n                    <p><b>Action: <em>avoid</em></b></p>\n                    <p>This is the bee that you just saw.</p>\n                    <img src=\"bees-with-color/bee-A2SM.svg\" width=\"200\">\n                    <p><br>Your bonus pay is unchanged, and remains at $0.10.</p>\n            ","response":0,"trial_type":"html-button-response","trial_index":90,"time_elapsed":640025,"internal_node_id":"0.0-4.0-1.39","subject_id":"60fe02e403ca7461c800b867","study_id":"6197b3f67c2b5cd3b6d9596a","session_id":"6197b569a7a387647ff964b9","condition":"contingent","relevant_dimensions":["pattern","legs"],"bee_group":{"antennae":"X","wings":"X","pattern":"D","legs":"M"},"bonus":0},{"rt":911,"stimulus":"bees-with-color/bee-B1DM.svg","response":1,"trial_type":"image-button-response","trial_index":91,"time_elapsed":640942,"internal_node_id":"0.0-4.0-0.40","subject_id":"60fe02e403ca7461c800b867","study_id":"6197b3f67c2b5cd3b6d9596a","session_id":"6197b569a7a387647ff964b9","condition":"contingent","relevant_dimensions":["pattern","legs"],"bee_group":{"antennae":"X","wings":"X","pattern":"D","legs":"M"},"action":"avoid","summary":"good-avoid","bonus":0},{"rt":9753.30000000028,"stimulus":"\n                    <p><b>Action: <em>avoid</em></b></p>\n                    <p>This is the bee that you just saw.</p>\n                    <img src=\"bees-with-color/bee-B1DM.svg\" width=\"200\">\n                    <p><br>Your bonus pay is unchanged, and remains at $0.10.</p>\n            ","response":0,"trial_type":"html-button-response","trial_index":92,"time_elapsed":650698,"internal_node_id":"0.0-4.0-1.40","subject_id":"60fe02e403ca7461c800b867","study_id":"6197b3f67c2b5cd3b6d9596a","session_id":"6197b569a7a387647ff964b9","condition":"contingent","relevant_dimensions":["pattern","legs"],"bee_group":{"antennae":"X","wings":"X","pattern":"D","legs":"M"},"bonus":0},{"rt":5846.100000000093,"stimulus":"bees-with-color/bee-A1DM.svg","response":0,"trial_type":"image-button-response","trial_index":93,"time_elapsed":656548,"internal_node_id":"0.0-4.0-0.41","subject_id":"60fe02e403ca7461c800b867","study_id":"6197b3f67c2b5cd3b6d9596a","session_id":"6197b569a7a387647ff964b9","condition":"contingent","relevant_dimensions":["pattern","legs"],"bee_group":{"antennae":"X","wings":"X","pattern":"D","legs":"M"},"action":"harvest","summary":"bad-harvest","bonus":0},{"rt":2496.0999999996275,"stimulus":"\n                    <p><b>Action: <em>harvest</em></b></p>\n                    <p>This is the bee that you just saw.</p>\n                    <img src=\"bees-with-color/bee-A1DM.svg\" width=\"200\">\n                    <p><span class=\"redText\">Bad choice, the bee was angry.</span><br><b>You have been stung!</b><br>Your pay has been decreased by $0.10. Your bonus pay is now $0.00.</p>\n            ","response":0,"trial_type":"html-button-response","trial_index":94,"time_elapsed":659048,"internal_node_id":"0.0-4.0-1.41","subject_id":"60fe02e403ca7461c800b867","study_id":"6197b3f67c2b5cd3b6d9596a","session_id":"6197b569a7a387647ff964b9","condition":"contingent","relevant_dimensions":["pattern","legs"],"bee_group":{"antennae":"X","wings":"X","pattern":"D","legs":"M"},"bonus":0},{"rt":1065.6000000000931,"stimulus":"bees-with-color/bee-A2DF.svg","response":0,"trial_type":"image-button-response","trial_index":95,"time_elapsed":660118,"internal_node_id":"0.0-4.0-0.42","subject_id":"60fe02e403ca7461c800b867","study_id":"6197b3f67c2b5cd3b6d9596a","session_id":"6197b569a7a387647ff964b9","condition":"contingent","relevant_dimensions":["pattern","legs"],"bee_group":{"antennae":"X","wings":"X","pattern":"D","legs":"M"},"action":"harvest","summary":"good-harvest","bonus":0},{"rt":1550.3000000002794,"stimulus":"\n                    <p><b>Action: <em>harvest</em></b></p>\n                    <p>This is the bee that you just saw.</p>\n                    <img src=\"bees-with-color/bee-A2DF.svg\" width=\"200\">\n                    <p><span class=\"greenText\"><b>Successful harvest!</b></span><br>Your pay has increased by $0.02. Your bonus pay is now $0.02.</p>\n            ","response":0,"trial_type":"html-button-response","trial_index":96,"time_elapsed":661674,"internal_node_id":"0.0-4.0-1.42","subject_id":"60fe02e403ca7461c800b867","study_id":"6197b3f67c2b5cd3b6d9596a","session_id":"6197b569a7a387647ff964b9","condition":"contingent","relevant_dimensions":["pattern","legs"],"bee_group":{"antennae":"X","wings":"X","pattern":"D","legs":"M"},"bonus":0},{"rt":1781.7000000001863,"stimulus":"bees-with-color/bee-A2SF.svg","response":0,"trial_type":"image-button-response","trial_index":97,"time_elapsed":663461,"internal_node_id":"0.0-4.0-0.43","subject_id":"60fe02e403ca7461c800b867","study_id":"6197b3f67c2b5cd3b6d9596a","session_id":"6197b569a7a387647ff964b9","condition":"contingent","relevant_dimensions":["pattern","legs"],"bee_group":{"antennae":"X","wings":"X","pattern":"D","legs":"M"},"action":"harvest","summary":"good-harvest","bonus":0},{"rt":1094.1999999997206,"stimulus":"\n                    <p><b>Action: <em>harvest</em></b></p>\n                    <p>This is the bee that you just saw.</p>\n                    <img src=\"bees-with-color/bee-A2SF.svg\" width=\"200\">\n                    <p><span class=\"greenText\"><b>Successful harvest!</b></span><br>Your pay has increased by $0.02. Your bonus pay is now $0.04.</p>\n            ","response":0,"trial_type":"html-button-response","trial_index":98,"time_elapsed":664561,"internal_node_id":"0.0-4.0-1.43","subject_id":"60fe02e403ca7461c800b867","study_id":"6197b3f67c2b5cd3b6d9596a","session_id":"6197b569a7a387647ff964b9","condition":"contingent","relevant_dimensions":["pattern","legs"],"bee_group":{"antennae":"X","wings":"X","pattern":"D","legs":"M"},"bonus":0},{"rt":828.5,"stimulus":"bees-with-color/bee-B2SM.svg","response":0,"trial_type":"image-button-response","trial_index":99,"time_elapsed":665397,"internal_node_id":"0.0-4.0-0.44","subject_id":"60fe02e403ca7461c800b867","study_id":"6197b3f67c2b5cd3b6d9596a","session_id":"6197b569a7a387647ff964b9","condition":"contingent","relevant_dimensions":["pattern","legs"],"bee_group":{"antennae":"X","wings":"X","pattern":"D","legs":"M"},"action":"harvest","summary":"good-harvest","bonus":0},{"rt":1338.2999999998137,"stimulus":"\n                    <p><b>Action: <em>harvest</em></b></p>\n                    <p>This is the bee that you just saw.</p>\n                    <img src=\"bees-with-color/bee-B2SM.svg\" width=\"200\">\n                    <p><span class=\"greenText\"><b>Successful harvest!</b></span><br>Your pay has increased by $0.02. Your bonus pay is now $0.06.</p>\n            ","response":0,"trial_type":"html-button-response","trial_index":100,"time_elapsed":666740,"internal_node_id":"0.0-4.0-1.44","subject_id":"60fe02e403ca7461c800b867","study_id":"6197b3f67c2b5cd3b6d9596a","session_id":"6197b569a7a387647ff964b9","condition":"contingent","relevant_dimensions":["pattern","legs"],"bee_group":{"antennae":"X","wings":"X","pattern":"D","legs":"M"},"bonus":0},{"rt":1138.6000000000931,"stimulus":"bees-with-color/bee-B2SF.svg","response":0,"trial_type":"image-button-response","trial_index":101,"time_elapsed":667881,"internal_node_id":"0.0-4.0-0.45","subject_id":"60fe02e403ca7461c800b867","study_id":"6197b3f67c2b5cd3b6d9596a","session_id":"6197b569a7a387647ff964b9","condition":"contingent","relevant_dimensions":["pattern","legs"],"bee_group":{"antennae":"X","wings":"X","pattern":"D","legs":"M"},"action":"harvest","summary":"good-harvest","bonus":0},{"rt":1089.6000000000931,"stimulus":"\n                    <p><b>Action: <em>harvest</em></b></p>\n                    <p>This is the bee that you just saw.</p>\n                    <img src=\"bees-with-color/bee-B2SF.svg\" width=\"200\">\n                    <p><span class=\"greenText\"><b>Successful harvest!</b></span><br>Your pay has increased by $0.02. Your bonus pay is now $0.08.</p>\n            ","response":0,"trial_type":"html-button-response","trial_index":102,"time_elapsed":668975,"internal_node_id":"0.0-4.0-1.45","subject_id":"60fe02e403ca7461c800b867","study_id":"6197b3f67c2b5cd3b6d9596a","session_id":"6197b569a7a387647ff964b9","condition":"contingent","relevant_dimensions":["pattern","legs"],"bee_group":{"antennae":"X","wings":"X","pattern":"D","legs":"M"},"bonus":0},{"rt":1117.5,"stimulus":"bees-with-color/bee-A1SF.svg","response":0,"trial_type":"image-button-response","trial_index":103,"time_elapsed":670096,"internal_node_id":"0.0-4.0-0.46","subject_id":"60fe02e403ca7461c800b867","study_id":"6197b3f67c2b5cd3b6d9596a","session_id":"6197b569a7a387647ff964b9","condition":"contingent","relevant_dimensions":["pattern","legs"],"bee_group":{"antennae":"X","wings":"X","pattern":"D","legs":"M"},"action":"harvest","summary":"good-harvest","bonus":0},{"rt":1972.5,"stimulus":"\n                    <p><b>Action: <em>harvest</em></b></p>\n                    <p>This is the bee that you just saw.</p>\n                    <img src=\"bees-with-color/bee-A1SF.svg\" width=\"200\">\n                    <p><span class=\"greenText\"><b>Successful harvest!</b></span><br>Your pay has increased by $0.02. Your bonus pay is now $0.10.</p>\n            ","response":0,"trial_type":"html-button-response","trial_index":104,"time_elapsed":672075,"internal_node_id":"0.0-4.0-1.46","subject_id":"60fe02e403ca7461c800b867","study_id":"6197b3f67c2b5cd3b6d9596a","session_id":"6197b569a7a387647ff964b9","condition":"contingent","relevant_dimensions":["pattern","legs"],"bee_group":{"antennae":"X","wings":"X","pattern":"D","legs":"M"},"bonus":0},{"rt":756.3000000002794,"stimulus":"bees-with-color/bee-B1DF.svg","response":0,"trial_type":"image-button-response","trial_index":105,"time_elapsed":672837,"internal_node_id":"0.0-4.0-0.47","subject_id":"60fe02e403ca7461c800b867","study_id":"6197b3f67c2b5cd3b6d9596a","session_id":"6197b569a7a387647ff964b9","condition":"contingent","relevant_dimensions":["pattern","legs"],"bee_group":{"antennae":"X","wings":"X","pattern":"D","legs":"M"},"action":"harvest","summary":"good-harvest","bonus":0},{"rt":920.6999999997206,"stimulus":"\n                    <p><b>Action: <em>harvest</em></b></p>\n                    <p>This is the bee that you just saw.</p>\n                    <img src=\"bees-with-color/bee-B1DF.svg\" width=\"200\">\n                    <p><span class=\"greenText\"><b>Successful harvest!</b></span><br>Your pay has increased by $0.02. Your bonus pay is now $0.12.</p>\n            ","response":0,"trial_type":"html-button-response","trial_index":106,"time_elapsed":673761,"internal_node_id":"0.0-4.0-1.47","subject_id":"60fe02e403ca7461c800b867","study_id":"6197b3f67c2b5cd3b6d9596a","session_id":"6197b569a7a387647ff964b9","condition":"contingent","relevant_dimensions":["pattern","legs"],"bee_group":{"antennae":"X","wings":"X","pattern":"D","legs":"M"},"bonus":0},{"rt":1507,"stimulus":"bees-with-color/bee-A1SF.svg","response":0,"trial_type":"image-button-response","trial_index":107,"time_elapsed":675272,"internal_node_id":"0.0-4.0-0.48","subject_id":"60fe02e403ca7461c800b867","study_id":"6197b3f67c2b5cd3b6d9596a","session_id":"6197b569a7a387647ff964b9","condition":"contingent","relevant_dimensions":["pattern","legs"],"bee_group":{"antennae":"X","wings":"X","pattern":"D","legs":"M"},"action":"harvest","summary":"good-harvest","bonus":0},{"rt":1065.3000000002794,"stimulus":"\n                    <p><b>Action: <em>harvest</em></b></p>\n                    <p>This is the bee that you just saw.</p>\n                    <img src=\"bees-with-color/bee-A1SF.svg\" width=\"200\">\n                    <p><span class=\"greenText\"><b>Successful harvest!</b></span><br>Your pay has increased by $0.02. Your bonus pay is now $0.14.</p>\n            ","response":0,"trial_type":"html-button-response","trial_index":108,"time_elapsed":676341,"internal_node_id":"0.0-4.0-1.48","subject_id":"60fe02e403ca7461c800b867","study_id":"6197b3f67c2b5cd3b6d9596a","session_id":"6197b569a7a387647ff964b9","condition":"contingent","relevant_dimensions":["pattern","legs"],"bee_group":{"antennae":"X","wings":"X","pattern":"D","legs":"M"},"bonus":0},{"rt":1618.1000000000931,"stimulus":"bees-with-color/bee-B1SF.svg","response":1,"trial_type":"image-button-response","trial_index":109,"time_elapsed":677963,"internal_node_id":"0.0-4.0-0.49","subject_id":"60fe02e403ca7461c800b867","study_id":"6197b3f67c2b5cd3b6d9596a","session_id":"6197b569a7a387647ff964b9","condition":"contingent","relevant_dimensions":["pattern","legs"],"bee_group":{"antennae":"X","wings":"X","pattern":"D","legs":"M"},"action":"avoid","summary":"bad-avoid","bonus":0},{"rt":1106.6000000000931,"stimulus":"\n                    <p><b>Action: <em>avoid</em></b></p>\n                    <p>This is the bee that you just saw.</p>\n                    <img src=\"bees-with-color/bee-B1SF.svg\" width=\"200\">\n                    <p><br>Your bonus pay is unchanged, and remains at $0.14.</p>\n            ","response":0,"trial_type":"html-button-response","trial_index":110,"time_elapsed":679076,"internal_node_id":"0.0-4.0-1.49","subject_id":"60fe02e403ca7461c800b867","study_id":"6197b3f67c2b5cd3b6d9596a","session_id":"6197b569a7a387647ff964b9","condition":"contingent","relevant_dimensions":["pattern","legs"],"bee_group":{"antennae":"X","wings":"X","pattern":"D","legs":"M"},"bonus":0},{"rt":729,"stimulus":"bees-with-color/bee-A2DF.svg","response":0,"trial_type":"image-button-response","trial_index":111,"time_elapsed":679809,"internal_node_id":"0.0-4.0-0.50","subject_id":"60fe02e403ca7461c800b867","study_id":"6197b3f67c2b5cd3b6d9596a","session_id":"6197b569a7a387647ff964b9","condition":"contingent","relevant_dimensions":["pattern","legs"],"bee_group":{"antennae":"X","wings":"X","pattern":"D","legs":"M"},"action":"harvest","summary":"good-harvest","bonus":0},{"rt":1086.8999999999069,"stimulus":"\n                    <p><b>Action: <em>harvest</em></b></p>\n                    <p>This is the bee that you just saw.</p>\n                    <img src=\"bees-with-color/bee-A2DF.svg\" width=\"200\">\n                    <p><span class=\"greenText\"><b>Successful harvest!</b></span><br>Your pay has increased by $0.02. Your bonus pay is now $0.16.</p>\n            ","response":0,"trial_type":"html-button-response","trial_index":112,"time_elapsed":680901,"internal_node_id":"0.0-4.0-1.50","subject_id":"60fe02e403ca7461c800b867","study_id":"6197b3f67c2b5cd3b6d9596a","session_id":"6197b569a7a387647ff964b9","condition":"contingent","relevant_dimensions":["pattern","legs"],"bee_group":{"antennae":"X","wings":"X","pattern":"D","legs":"M"},"bonus":0},{"rt":2357.7000000001863,"stimulus":"bees-with-color/bee-B2DM.svg","response":0,"trial_type":"image-button-response","trial_index":113,"time_elapsed":683262,"internal_node_id":"0.0-4.0-0.51","subject_id":"60fe02e403ca7461c800b867","study_id":"6197b3f67c2b5cd3b6d9596a","session_id":"6197b569a7a387647ff964b9","condition":"contingent","relevant_dimensions":["pattern","legs"],"bee_group":{"antennae":"X","wings":"X","pattern":"D","legs":"M"},"action":"harvest","summary":"bad-harvest","bonus":0},{"rt":2145.3000000002794,"stimulus":"\n                    <p><b>Action: <em>harvest</em></b></p>\n                    <p>This is the bee that you just saw.</p>\n                    <img src=\"bees-with-color/bee-B2DM.svg\" width=\"200\">\n                    <p><span class=\"redText\">Bad choice, the bee was angry.</span><br><b>You have been stung!</b><br>Your pay has been decreased by $0.10. Your bonus pay is now $0.06.</p>\n            ","response":0,"trial_type":"html-button-response","trial_index":114,"time_elapsed":685410,"internal_node_id":"0.0-4.0-1.51","subject_id":"60fe02e403ca7461c800b867","study_id":"6197b3f67c2b5cd3b6d9596a","session_id":"6197b569a7a387647ff964b9","condition":"contingent","relevant_dimensions":["pattern","legs"],"bee_group":{"antennae":"X","wings":"X","pattern":"D","legs":"M"},"bonus":0},{"rt":1095.7999999998137,"stimulus":"bees-with-color/bee-A2SM.svg","response":0,"trial_type":"image-button-response","trial_index":115,"time_elapsed":686509,"internal_node_id":"0.0-4.0-0.52","subject_id":"60fe02e403ca7461c800b867","study_id":"6197b3f67c2b5cd3b6d9596a","session_id":"6197b569a7a387647ff964b9","condition":"contingent","relevant_dimensions":["pattern","legs"],"bee_group":{"antennae":"X","wings":"X","pattern":"D","legs":"M"},"action":"harvest","summary":"good-harvest","bonus":0},{"rt":1074.5,"stimulus":"\n                    <p><b>Action: <em>harvest</em></b></p>\n                    <p>This is the bee that you just saw.</p>\n                    <img src=\"bees-with-color/bee-A2SM.svg\" width=\"200\">\n                    <p><span class=\"greenText\"><b>Successful harvest!</b></span><br>Your pay has increased by $0.02. Your bonus pay is now $0.08.</p>\n            ","response":0,"trial_type":"html-button-response","trial_index":116,"time_elapsed":687587,"internal_node_id":"0.0-4.0-1.52","subject_id":"60fe02e403ca7461c800b867","study_id":"6197b3f67c2b5cd3b6d9596a","session_id":"6197b569a7a387647ff964b9","condition":"contingent","relevant_dimensions":["pattern","legs"],"bee_group":{"antennae":"X","wings":"X","pattern":"D","legs":"M"},"bonus":0},{"rt":920.8999999999069,"stimulus":"bees-with-color/bee-B1DM.svg","response":0,"trial_type":"image-button-response","trial_index":117,"time_elapsed":688511,"internal_node_id":"0.0-4.0-0.53","subject_id":"60fe02e403ca7461c800b867","study_id":"6197b3f67c2b5cd3b6d9596a","session_id":"6197b569a7a387647ff964b9","condition":"contingent","relevant_dimensions":["pattern","legs"],"bee_group":{"antennae":"X","wings":"X","pattern":"D","legs":"M"},"action":"harvest","summary":"bad-harvest","bonus":0},{"rt":1601.3999999999069,"stimulus":"\n                    <p><b>Action: <em>harvest</em></b></p>\n                    <p>This is the bee that you just saw.</p>\n                    <img src=\"bees-with-color/bee-B1DM.svg\" width=\"200\">\n                    <p><span class=\"redText\">Bad choice, the bee was angry.</span><br><b>You have been stung!</b><br>Your pay has been decreased by $0.10. Your bonus pay is now $0.00.</p>\n            ","response":0,"trial_type":"html-button-response","trial_index":118,"time_elapsed":690116,"internal_node_id":"0.0-4.0-1.53","subject_id":"60fe02e403ca7461c800b867","study_id":"6197b3f67c2b5cd3b6d9596a","session_id":"6197b569a7a387647ff964b9","condition":"contingent","relevant_dimensions":["pattern","legs"],"bee_group":{"antennae":"X","wings":"X","pattern":"D","legs":"M"},"bonus":0},{"rt":943,"stimulus":"bees-with-color/bee-B2DF.svg","response":0,"trial_type":"image-button-response","trial_index":119,"time_elapsed":691062,"internal_node_id":"0.0-4.0-0.54","subject_id":"60fe02e403ca7461c800b867","study_id":"6197b3f67c2b5cd3b6d9596a","session_id":"6197b569a7a387647ff964b9","condition":"contingent","relevant_dimensions":["pattern","legs"],"bee_group":{"antennae":"X","wings":"X","pattern":"D","legs":"M"},"action":"harvest","summary":"good-harvest","bonus":0},{"rt":2753.600000000093,"stimulus":"\n                    <p><b>Action: <em>harvest</em></b></p>\n                    <p>This is the bee that you just saw.</p>\n                    <img src=\"bees-with-color/bee-B2DF.svg\" width=\"200\">\n                    <p><span class=\"greenText\"><b>Successful harvest!</b></span><br>Your pay has increased by $0.02. Your bonus pay is now $0.02.</p>\n            ","response":0,"trial_type":"html-button-response","trial_index":120,"time_elapsed":693819,"internal_node_id":"0.0-4.0-1.54","subject_id":"60fe02e403ca7461c800b867","study_id":"6197b3f67c2b5cd3b6d9596a","session_id":"6197b569a7a387647ff964b9","condition":"contingent","relevant_dimensions":["pattern","legs"],"bee_group":{"antennae":"X","wings":"X","pattern":"D","legs":"M"},"bonus":0},{"rt":1233.8000000002794,"stimulus":"bees-with-color/bee-B1DF.svg","response":0,"trial_type":"image-button-response","trial_index":121,"time_elapsed":695057,"internal_node_id":"0.0-4.0-0.55","subject_id":"60fe02e403ca7461c800b867","study_id":"6197b3f67c2b5cd3b6d9596a","session_id":"6197b569a7a387647ff964b9","condition":"contingent","relevant_dimensions":["pattern","legs"],"bee_group":{"antennae":"X","wings":"X","pattern":"D","legs":"M"},"action":"harvest","summary":"good-harvest","bonus":0},{"rt":1690.1000000000931,"stimulus":"\n                    <p><b>Action: <em>harvest</em></b></p>\n                    <p>This is the bee that you just saw.</p>\n                    <img src=\"bees-with-color/bee-B1DF.svg\" width=\"200\">\n                    <p><span class=\"greenText\"><b>Successful harvest!</b></span><br>Your pay has increased by $0.02. Your bonus pay is now $0.04.</p>\n            ","response":0,"trial_type":"html-button-response","trial_index":122,"time_elapsed":696750,"internal_node_id":"0.0-4.0-1.55","subject_id":"60fe02e403ca7461c800b867","study_id":"6197b3f67c2b5cd3b6d9596a","session_id":"6197b569a7a387647ff964b9","condition":"contingent","relevant_dimensions":["pattern","legs"],"bee_group":{"antennae":"X","wings":"X","pattern":"D","legs":"M"},"bonus":0},{"rt":1008.8000000002794,"stimulus":"bees-with-color/bee-A1SM.svg","response":0,"trial_type":"image-button-response","trial_index":123,"time_elapsed":697762,"internal_node_id":"0.0-4.0-0.56","subject_id":"60fe02e403ca7461c800b867","study_id":"6197b3f67c2b5cd3b6d9596a","session_id":"6197b569a7a387647ff964b9","condition":"contingent","relevant_dimensions":["pattern","legs"],"bee_group":{"antennae":"X","wings":"X","pattern":"D","legs":"M"},"action":"harvest","summary":"good-harvest","bonus":0},{"rt":1037.8999999999069,"stimulus":"\n                    <p><b>Action: <em>harvest</em></b></p>\n                    <p>This is the bee that you just saw.</p>\n                    <img src=\"bees-with-color/bee-A1SM.svg\" width=\"200\">\n                    <p><span class=\"greenText\"><b>Successful harvest!</b></span><br>Your pay has increased by $0.02. Your bonus pay is now $0.06.</p>\n            ","response":0,"trial_type":"html-button-response","trial_index":124,"time_elapsed":698803,"internal_node_id":"0.0-4.0-1.56","subject_id":"60fe02e403ca7461c800b867","study_id":"6197b3f67c2b5cd3b6d9596a","session_id":"6197b569a7a387647ff964b9","condition":"contingent","relevant_dimensions":["pattern","legs"],"bee_group":{"antennae":"X","wings":"X","pattern":"D","legs":"M"},"bonus":0},{"rt":1331.8999999999069,"stimulus":"bees-with-color/bee-B2SM.svg","response":0,"trial_type":"image-button-response","trial_index":125,"time_elapsed":700139,"internal_node_id":"0.0-4.0-0.57","subject_id":"60fe02e403ca7461c800b867","study_id":"6197b3f67c2b5cd3b6d9596a","session_id":"6197b569a7a387647ff964b9","condition":"contingent","relevant_dimensions":["pattern","legs"],"bee_group":{"antennae":"X","wings":"X","pattern":"D","legs":"M"},"action":"harvest","summary":"good-harvest","bonus":0},{"rt":1160.7999999998137,"stimulus":"\n                    <p><b>Action: <em>harvest</em></b></p>\n                    <p>This is the bee that you just saw.</p>\n                    <img src=\"bees-with-color/bee-B2SM.svg\" width=\"200\">\n                    <p><span class=\"greenText\"><b>Successful harvest!</b></span><br>Your pay has increased by $0.02. Your bonus pay is now $0.08.</p>\n            ","response":0,"trial_type":"html-button-response","trial_index":126,"time_elapsed":701303,"internal_node_id":"0.0-4.0-1.57","subject_id":"60fe02e403ca7461c800b867","study_id":"6197b3f67c2b5cd3b6d9596a","session_id":"6197b569a7a387647ff964b9","condition":"contingent","relevant_dimensions":["pattern","legs"],"bee_group":{"antennae":"X","wings":"X","pattern":"D","legs":"M"},"bonus":0},{"rt":1953.1000000000931,"stimulus":"bees-with-color/bee-B2SF.svg","response":0,"trial_type":"image-button-response","trial_index":127,"time_elapsed":703260,"internal_node_id":"0.0-4.0-0.58","subject_id":"60fe02e403ca7461c800b867","study_id":"6197b3f67c2b5cd3b6d9596a","session_id":"6197b569a7a387647ff964b9","condition":"contingent","relevant_dimensions":["pattern","legs"],"bee_group":{"antennae":"X","wings":"X","pattern":"D","legs":"M"},"action":"harvest","summary":"good-harvest","bonus":0},{"rt":1492.2999999998137,"stimulus":"\n                    <p><b>Action: <em>harvest</em></b></p>\n                    <p>This is the bee that you just saw.</p>\n                    <img src=\"bees-with-color/bee-B2SF.svg\" width=\"200\">\n                    <p><span class=\"greenText\"><b>Successful harvest!</b></span><br>Your pay has increased by $0.02. Your bonus pay is now $0.10.</p>\n            ","response":0,"trial_type":"html-button-response","trial_index":128,"time_elapsed":704755,"internal_node_id":"0.0-4.0-1.58","subject_id":"60fe02e403ca7461c800b867","study_id":"6197b3f67c2b5cd3b6d9596a","session_id":"6197b569a7a387647ff964b9","condition":"contingent","relevant_dimensions":["pattern","legs"],"bee_group":{"antennae":"X","wings":"X","pattern":"D","legs":"M"},"bonus":0},{"rt":913,"stimulus":"bees-with-color/bee-A2DM.svg","response":0,"trial_type":"image-button-response","trial_index":129,"time_elapsed":705672,"internal_node_id":"0.0-4.0-0.59","subject_id":"60fe02e403ca7461c800b867","study_id":"6197b3f67c2b5cd3b6d9596a","session_id":"6197b569a7a387647ff964b9","condition":"contingent","relevant_dimensions":["pattern","legs"],"bee_group":{"antennae":"X","wings":"X","pattern":"D","legs":"M"},"action":"harvest","summary":"bad-harvest","bonus":0},{"rt":2284.399999999907,"stimulus":"\n                    <p><b>Action: <em>harvest</em></b></p>\n                    <p>This is the bee that you just saw.</p>\n                    <img src=\"bees-with-color/bee-A2DM.svg\" width=\"200\">\n                    <p><span class=\"redText\">Bad choice, the bee was angry.</span><br><b>You have been stung!</b><br>Your pay has been decreased by $0.10. Your bonus pay is now $0.00.</p>\n            ","response":0,"trial_type":"html-button-response","trial_index":130,"time_elapsed":707959,"internal_node_id":"0.0-4.0-1.59","subject_id":"60fe02e403ca7461c800b867","study_id":"6197b3f67c2b5cd3b6d9596a","session_id":"6197b569a7a387647ff964b9","condition":"contingent","relevant_dimensions":["pattern","legs"],"bee_group":{"antennae":"X","wings":"X","pattern":"D","legs":"M"},"bonus":0},{"rt":927.6000000000931,"stimulus":"bees-with-color/bee-A1DF.svg","response":0,"trial_type":"image-button-response","trial_index":131,"time_elapsed":708890,"internal_node_id":"0.0-4.0-0.60","subject_id":"60fe02e403ca7461c800b867","study_id":"6197b3f67c2b5cd3b6d9596a","session_id":"6197b569a7a387647ff964b9","condition":"contingent","relevant_dimensions":["pattern","legs"],"bee_group":{"antennae":"X","wings":"X","pattern":"D","legs":"M"},"action":"harvest","summary":"good-harvest","bonus":0},{"rt":1147.8000000002794,"stimulus":"\n                    <p><b>Action: <em>harvest</em></b></p>\n                    <p>This is the bee that you just saw.</p>\n                    <img src=\"bees-with-color/bee-A1DF.svg\" width=\"200\">\n                    <p><span class=\"greenText\"><b>Successful harvest!</b></span><br>Your pay has increased by $0.02. Your bonus pay is now $0.02.</p>\n            ","response":0,"trial_type":"html-button-response","trial_index":132,"time_elapsed":710041,"internal_node_id":"0.0-4.0-1.60","subject_id":"60fe02e403ca7461c800b867","study_id":"6197b3f67c2b5cd3b6d9596a","session_id":"6197b569a7a387647ff964b9","condition":"contingent","relevant_dimensions":["pattern","legs"],"bee_group":{"antennae":"X","wings":"X","pattern":"D","legs":"M"},"bonus":0},{"rt":1089.6000000000931,"stimulus":"bees-with-color/bee-A2SF.svg","response":0,"trial_type":"image-button-response","trial_index":133,"time_elapsed":711134,"internal_node_id":"0.0-4.0-0.61","subject_id":"60fe02e403ca7461c800b867","study_id":"6197b3f67c2b5cd3b6d9596a","session_id":"6197b569a7a387647ff964b9","condition":"contingent","relevant_dimensions":["pattern","legs"],"bee_group":{"antennae":"X","wings":"X","pattern":"D","legs":"M"},"action":"harvest","summary":"good-harvest","bonus":0},{"rt":1095.5,"stimulus":"\n                    <p><b>Action: <em>harvest</em></b></p>\n                    <p>This is the bee that you just saw.</p>\n                    <img src=\"bees-with-color/bee-A2SF.svg\" width=\"200\">\n                    <p><span class=\"greenText\"><b>Successful harvest!</b></span><br>Your pay has increased by $0.02. Your bonus pay is now $0.04.</p>\n            ","response":0,"trial_type":"html-button-response","trial_index":134,"time_elapsed":712233,"internal_node_id":"0.0-4.0-1.61","subject_id":"60fe02e403ca7461c800b867","study_id":"6197b3f67c2b5cd3b6d9596a","session_id":"6197b569a7a387647ff964b9","condition":"contingent","relevant_dimensions":["pattern","legs"],"bee_group":{"antennae":"X","wings":"X","pattern":"D","legs":"M"},"bonus":0},{"rt":993.5,"stimulus":"bees-with-color/bee-B1SM.svg","response":0,"trial_type":"image-button-response","trial_index":135,"time_elapsed":713230,"internal_node_id":"0.0-4.0-0.62","subject_id":"60fe02e403ca7461c800b867","study_id":"6197b3f67c2b5cd3b6d9596a","session_id":"6197b569a7a387647ff964b9","condition":"contingent","relevant_dimensions":["pattern","legs"],"bee_group":{"antennae":"X","wings":"X","pattern":"D","legs":"M"},"action":"harvest","summary":"good-harvest","bonus":0},{"rt":1170.7000000001863,"stimulus":"\n                    <p><b>Action: <em>harvest</em></b></p>\n                    <p>This is the bee that you just saw.</p>\n                    <img src=\"bees-with-color/bee-B1SM.svg\" width=\"200\">\n                    <p><span class=\"greenText\"><b>Successful harvest!</b></span><br>Your pay has increased by $0.02. Your bonus pay is now $0.06.</p>\n            ","response":0,"trial_type":"html-button-response","trial_index":136,"time_elapsed":714404,"internal_node_id":"0.0-4.0-1.62","subject_id":"60fe02e403ca7461c800b867","study_id":"6197b3f67c2b5cd3b6d9596a","session_id":"6197b569a7a387647ff964b9","condition":"contingent","relevant_dimensions":["pattern","legs"],"bee_group":{"antennae":"X","wings":"X","pattern":"D","legs":"M"},"bonus":0},{"rt":1080.6000000000931,"stimulus":"bees-with-color/bee-A1DM.svg","response":0,"trial_type":"image-button-response","trial_index":137,"time_elapsed":715489,"internal_node_id":"0.0-4.0-0.63","subject_id":"60fe02e403ca7461c800b867","study_id":"6197b3f67c2b5cd3b6d9596a","session_id":"6197b569a7a387647ff964b9","condition":"contingent","relevant_dimensions":["pattern","legs"],"bee_group":{"antennae":"X","wings":"X","pattern":"D","legs":"M"},"action":"harvest","summary":"bad-harvest","bonus":0},{"rt":1423.6999999997206,"stimulus":"\n                    <p><b>Action: <em>harvest</em></b></p>\n                    <p>This is the bee that you just saw.</p>\n                    <img src=\"bees-with-color/bee-A1DM.svg\" width=\"200\">\n                    <p><span class=\"redText\">Bad choice, the bee was angry.</span><br><b>You have been stung!</b><br>Your pay has been decreased by $0.10. Your bonus pay is now $0.00.</p>\n            ","response":0,"trial_type":"html-button-response","trial_index":138,"time_elapsed":716918,"internal_node_id":"0.0-4.0-1.63","subject_id":"60fe02e403ca7461c800b867","study_id":"6197b3f67c2b5cd3b6d9596a","session_id":"6197b569a7a387647ff964b9","condition":"contingent","relevant_dimensions":["pattern","legs"],"bee_group":{"antennae":"X","wings":"X","pattern":"D","legs":"M"},"bonus":0},{"rt":10387.30000000028,"stimulus":"You have completed the first part of this experiment.<br><br>You will now begin a shorter second part, in which you will receive no feedback.<br>The same rules regarding bonus pay apply.<br><br>Press any key to begin.","response":" ","trial_type":"html-keyboard-response","trial_index":139,"time_elapsed":727310,"internal_node_id":"0.0-5.0","subject_id":"60fe02e403ca7461c800b867","study_id":"6197b3f67c2b5cd3b6d9596a","session_id":"6197b569a7a387647ff964b9","condition":"contingent","relevant_dimensions":["pattern","legs"],"bee_group":{"antennae":"X","wings":"X","pattern":"D","legs":"M"},"bonus":0},{"rt":7331.0999999996275,"stimulus":"bees-with-color/bee-A2DM.svg","response":1,"trial_type":"image-button-response","trial_index":140,"time_elapsed":734719,"internal_node_id":"0.0-6.0-0.0","subject_id":"60fe02e403ca7461c800b867","study_id":"6197b3f67c2b5cd3b6d9596a","session_id":"6197b569a7a387647ff964b9","condition":"contingent","relevant_dimensions":["pattern","legs"],"bee_group":{"antennae":"X","wings":"X","pattern":"D","legs":"M"},"bonus":0},{"rt":4288.399999999907,"stimulus":"bees-with-color/bee-B2DF.svg","response":0,"trial_type":"image-button-response","trial_index":141,"time_elapsed":739013,"internal_node_id":"0.0-6.0-0.1","subject_id":"60fe02e403ca7461c800b867","study_id":"6197b3f67c2b5cd3b6d9596a","session_id":"6197b569a7a387647ff964b9","condition":"contingent","relevant_dimensions":["pattern","legs"],"bee_group":{"antennae":"X","wings":"X","pattern":"D","legs":"M"},"bonus":0},{"rt":1914.8999999999069,"stimulus":"bees-with-color/bee-B1SF.svg","response":0,"trial_type":"image-button-response","trial_index":142,"time_elapsed":740934,"internal_node_id":"0.0-6.0-0.2","subject_id":"60fe02e403ca7461c800b867","study_id":"6197b3f67c2b5cd3b6d9596a","session_id":"6197b569a7a387647ff964b9","condition":"contingent","relevant_dimensions":["pattern","legs"],"bee_group":{"antennae":"X","wings":"X","pattern":"D","legs":"M"},"bonus":0},{"rt":1703.3999999999069,"stimulus":"bees-with-color/bee-A2SF.svg","response":0,"trial_type":"image-button-response","trial_index":143,"time_elapsed":742642,"internal_node_id":"0.0-6.0-0.3","subject_id":"60fe02e403ca7461c800b867","study_id":"6197b3f67c2b5cd3b6d9596a","session_id":"6197b569a7a387647ff964b9","condition":"contingent","relevant_dimensions":["pattern","legs"],"bee_group":{"antennae":"X","wings":"X","pattern":"D","legs":"M"},"bonus":0},{"rt":1022.3999999999069,"stimulus":"bees-with-color/bee-B1SM.svg","response":0,"trial_type":"image-button-response","trial_index":144,"time_elapsed":743669,"internal_node_id":"0.0-6.0-0.4","subject_id":"60fe02e403ca7461c800b867","study_id":"6197b3f67c2b5cd3b6d9596a","session_id":"6197b569a7a387647ff964b9","condition":"contingent","relevant_dimensions":["pattern","legs"],"bee_group":{"antennae":"X","wings":"X","pattern":"D","legs":"M"},"bonus":0},{"rt":1321.1000000000931,"stimulus":"bees-with-color/bee-A2SM.svg","response":0,"trial_type":"image-button-response","trial_index":145,"time_elapsed":744995,"internal_node_id":"0.0-6.0-0.5","subject_id":"60fe02e403ca7461c800b867","study_id":"6197b3f67c2b5cd3b6d9596a","session_id":"6197b569a7a387647ff964b9","condition":"contingent","relevant_dimensions":["pattern","legs"],"bee_group":{"antennae":"X","wings":"X","pattern":"D","legs":"M"},"bonus":0},{"rt":264.20000000018626,"stimulus":"bees-with-color/bee-B1DM.svg","response":0,"trial_type":"image-button-response","trial_index":146,"time_elapsed":745267,"internal_node_id":"0.0-6.0-0.6","subject_id":"60fe02e403ca7461c800b867","study_id":"6197b3f67c2b5cd3b6d9596a","session_id":"6197b569a7a387647ff964b9","condition":"contingent","relevant_dimensions":["pattern","legs"],"bee_group":{"antennae":"X","wings":"X","pattern":"D","legs":"M"},"bonus":0},{"rt":236.3000000002794,"stimulus":"bees-with-color/bee-A1DF.svg","response":0,"trial_type":"image-button-response","trial_index":147,"time_elapsed":745508,"internal_node_id":"0.0-6.0-0.7","subject_id":"60fe02e403ca7461c800b867","study_id":"6197b3f67c2b5cd3b6d9596a","session_id":"6197b569a7a387647ff964b9","condition":"contingent","relevant_dimensions":["pattern","legs"],"bee_group":{"antennae":"X","wings":"X","pattern":"D","legs":"M"},"bonus":0},{"rt":1296.3999999999069,"stimulus":"bees-with-color/bee-A1SM.svg","response":0,"trial_type":"image-button-response","trial_index":148,"time_elapsed":746813,"internal_node_id":"0.0-6.0-0.8","subject_id":"60fe02e403ca7461c800b867","study_id":"6197b3f67c2b5cd3b6d9596a","session_id":"6197b569a7a387647ff964b9","condition":"contingent","relevant_dimensions":["pattern","legs"],"bee_group":{"antennae":"X","wings":"X","pattern":"D","legs":"M"},"bonus":0},{"rt":662.3000000002794,"stimulus":"bees-with-color/bee-A1DM.svg","response":0,"trial_type":"image-button-response","trial_index":149,"time_elapsed":747480,"internal_node_id":"0.0-6.0-0.9","subject_id":"60fe02e403ca7461c800b867","study_id":"6197b3f67c2b5cd3b6d9596a","session_id":"6197b569a7a387647ff964b9","condition":"contingent","relevant_dimensions":["pattern","legs"],"bee_group":{"antennae":"X","wings":"X","pattern":"D","legs":"M"},"bonus":0},{"rt":588.5,"stimulus":"bees-with-color/bee-B2SM.svg","response":0,"trial_type":"image-button-response","trial_index":150,"time_elapsed":748074,"internal_node_id":"0.0-6.0-0.10","subject_id":"60fe02e403ca7461c800b867","study_id":"6197b3f67c2b5cd3b6d9596a","session_id":"6197b569a7a387647ff964b9","condition":"contingent","relevant_dimensions":["pattern","legs"],"bee_group":{"antennae":"X","wings":"X","pattern":"D","legs":"M"},"bonus":0},{"rt":551,"stimulus":"bees-with-color/bee-A1SF.svg","response":0,"trial_type":"image-button-response","trial_index":151,"time_elapsed":748631,"internal_node_id":"0.0-6.0-0.11","subject_id":"60fe02e403ca7461c800b867","study_id":"6197b3f67c2b5cd3b6d9596a","session_id":"6197b569a7a387647ff964b9","condition":"contingent","relevant_dimensions":["pattern","legs"],"bee_group":{"antennae":"X","wings":"X","pattern":"D","legs":"M"},"bonus":0},{"rt":897.7999999998137,"stimulus":"bees-with-color/bee-B2SF.svg","response":0,"trial_type":"image-button-response","trial_index":152,"time_elapsed":749532,"internal_node_id":"0.0-6.0-0.12","subject_id":"60fe02e403ca7461c800b867","study_id":"6197b3f67c2b5cd3b6d9596a","session_id":"6197b569a7a387647ff964b9","condition":"contingent","relevant_dimensions":["pattern","legs"],"bee_group":{"antennae":"X","wings":"X","pattern":"D","legs":"M"},"bonus":0},{"rt":494,"stimulus":"bees-with-color/bee-B1DF.svg","response":0,"trial_type":"image-button-response","trial_index":153,"time_elapsed":750031,"internal_node_id":"0.0-6.0-0.13","subject_id":"60fe02e403ca7461c800b867","study_id":"6197b3f67c2b5cd3b6d9596a","session_id":"6197b569a7a387647ff964b9","condition":"contingent","relevant_dimensions":["pattern","legs"],"bee_group":{"antennae":"X","wings":"X","pattern":"D","legs":"M"},"bonus":0},{"rt":568.1000000000931,"stimulus":"bees-with-color/bee-B2DM.svg","response":0,"trial_type":"image-button-response","trial_index":154,"time_elapsed":750604,"internal_node_id":"0.0-6.0-0.14","subject_id":"60fe02e403ca7461c800b867","study_id":"6197b3f67c2b5cd3b6d9596a","session_id":"6197b569a7a387647ff964b9","condition":"contingent","relevant_dimensions":["pattern","legs"],"bee_group":{"antennae":"X","wings":"X","pattern":"D","legs":"M"},"bonus":0},{"rt":477.79999999981374,"stimulus":"bees-with-color/bee-A2DF.svg","response":0,"trial_type":"image-button-response","trial_index":155,"time_elapsed":751087,"internal_node_id":"0.0-6.0-0.15","subject_id":"60fe02e403ca7461c800b867","study_id":"6197b3f67c2b5cd3b6d9596a","session_id":"6197b569a7a387647ff964b9","condition":"contingent","relevant_dimensions":["pattern","legs"],"bee_group":{"antennae":"X","wings":"X","pattern":"D","legs":"M"},"bonus":0},{"rt":918.2000000001863,"stimulus":"bees-with-color/bee-B2DF.svg","response":0,"trial_type":"image-button-response","trial_index":156,"time_elapsed":752010,"internal_node_id":"0.0-6.0-0.16","subject_id":"60fe02e403ca7461c800b867","study_id":"6197b3f67c2b5cd3b6d9596a","session_id":"6197b569a7a387647ff964b9","condition":"contingent","relevant_dimensions":["pattern","legs"],"bee_group":{"antennae":"X","wings":"X","pattern":"D","legs":"M"},"bonus":0},{"rt":685.5,"stimulus":"bees-with-color/bee-B1SF.svg","response":0,"trial_type":"image-button-response","trial_index":157,"time_elapsed":752700,"internal_node_id":"0.0-6.0-0.17","subject_id":"60fe02e403ca7461c800b867","study_id":"6197b3f67c2b5cd3b6d9596a","session_id":"6197b569a7a387647ff964b9","condition":"contingent","relevant_dimensions":["pattern","legs"],"bee_group":{"antennae":"X","wings":"X","pattern":"D","legs":"M"},"bonus":0},{"rt":507.70000000018626,"stimulus":"bees-with-color/bee-B1SM.svg","response":0,"trial_type":"image-button-response","trial_index":158,"time_elapsed":753213,"internal_node_id":"0.0-6.0-0.18","subject_id":"60fe02e403ca7461c800b867","study_id":"6197b3f67c2b5cd3b6d9596a","session_id":"6197b569a7a387647ff964b9","condition":"contingent","relevant_dimensions":["pattern","legs"],"bee_group":{"antennae":"X","wings":"X","pattern":"D","legs":"M"},"bonus":0},{"rt":184.5,"stimulus":"bees-with-color/bee-B2SF.svg","response":0,"trial_type":"image-button-response","trial_index":159,"time_elapsed":753403,"internal_node_id":"0.0-6.0-0.19","subject_id":"60fe02e403ca7461c800b867","study_id":"6197b3f67c2b5cd3b6d9596a","session_id":"6197b569a7a387647ff964b9","condition":"contingent","relevant_dimensions":["pattern","legs"],"bee_group":{"antennae":"X","wings":"X","pattern":"D","legs":"M"},"bonus":0},{"rt":281.5,"stimulus":"bees-with-color/bee-A2DM.svg","response":0,"trial_type":"image-button-response","trial_index":160,"time_elapsed":753689,"internal_node_id":"0.0-6.0-0.20","subject_id":"60fe02e403ca7461c800b867","study_id":"6197b3f67c2b5cd3b6d9596a","session_id":"6197b569a7a387647ff964b9","condition":"contingent","relevant_dimensions":["pattern","legs"],"bee_group":{"antennae":"X","wings":"X","pattern":"D","legs":"M"},"bonus":0},{"rt":479.79999999981374,"stimulus":"bees-with-color/bee-A2SM.svg","response":0,"trial_type":"image-button-response","trial_index":161,"time_elapsed":754172,"internal_node_id":"0.0-6.0-0.21","subject_id":"60fe02e403ca7461c800b867","study_id":"6197b3f67c2b5cd3b6d9596a","session_id":"6197b569a7a387647ff964b9","condition":"contingent","relevant_dimensions":["pattern","legs"],"bee_group":{"antennae":"X","wings":"X","pattern":"D","legs":"M"},"bonus":0},{"rt":377.5,"stimulus":"bees-with-color/bee-B1DM.svg","response":0,"trial_type":"image-button-response","trial_index":162,"time_elapsed":754554,"internal_node_id":"0.0-6.0-0.22","subject_id":"60fe02e403ca7461c800b867","study_id":"6197b3f67c2b5cd3b6d9596a","session_id":"6197b569a7a387647ff964b9","condition":"contingent","relevant_dimensions":["pattern","legs"],"bee_group":{"antennae":"X","wings":"X","pattern":"D","legs":"M"},"bonus":0},{"rt":384,"stimulus":"bees-with-color/bee-B1DF.svg","response":0,"trial_type":"image-button-response","trial_index":163,"time_elapsed":754942,"internal_node_id":"0.0-6.0-0.23","subject_id":"60fe02e403ca7461c800b867","study_id":"6197b3f67c2b5cd3b6d9596a","session_id":"6197b569a7a387647ff964b9","condition":"contingent","relevant_dimensions":["pattern","legs"],"bee_group":{"antennae":"X","wings":"X","pattern":"D","legs":"M"},"bonus":0},{"rt":331.6999999997206,"stimulus":"bees-with-color/bee-A2SF.svg","response":0,"trial_type":"image-button-response","trial_index":164,"time_elapsed":755280,"internal_node_id":"0.0-6.0-0.24","subject_id":"60fe02e403ca7461c800b867","study_id":"6197b3f67c2b5cd3b6d9596a","session_id":"6197b569a7a387647ff964b9","condition":"contingent","relevant_dimensions":["pattern","legs"],"bee_group":{"antennae":"X","wings":"X","pattern":"D","legs":"M"},"bonus":0},{"rt":303.89999999990687,"stimulus":"bees-with-color/bee-B2DM.svg","response":0,"trial_type":"image-button-response","trial_index":165,"time_elapsed":755587,"internal_node_id":"0.0-6.0-0.25","subject_id":"60fe02e403ca7461c800b867","