[{"success":true,"trial_type":"fullscreen","trial_index":0,"time_elapsed":3464,"internal_node_id":"0.0-0.0","subject_id":"614dd12e1864621b9d8436ac","study_id":"6197b3f67c2b5cd3b6d9596a","session_id":"6197b88fd1f4f025cc1c9649","condition":"contingent","relevant_dimensions":["antennae","pattern"],"bee_group":{"antennae":"A","wings":"X","pattern":"S","legs":"X"},"bonus":1.300000000000001},{"success":true,"timeout":false,"failed_images":[],"failed_audio":[],"failed_video":[],"trial_type":"preload","trial_index":1,"time_elapsed":5562,"internal_node_id":"0.0-1.0","subject_id":"614dd12e1864621b9d8436ac","study_id":"6197b3f67c2b5cd3b6d9596a","session_id":"6197b88fd1f4f025cc1c9649","condition":"contingent","relevant_dimensions":["antennae","pattern"],"bee_group":{"antennae":"A","wings":"X","pattern":"S","legs":"X"},"bonus":1.300000000000001},{"rt":2373.2000000476837,"stimulus":"Welcome! Press any key to begin.","response":"arrowright","trial_type":"html-keyboard-response","trial_index":2,"time_elapsed":7936,"internal_node_id":"0.0-2.0","subject_id":"614dd12e1864621b9d8436ac","study_id":"6197b3f67c2b5cd3b6d9596a","session_id":"6197b88fd1f4f025cc1c9649","condition":"contingent","relevant_dimensions":["antennae","pattern"],"bee_group":{"antennae":"A","wings":"X","pattern":"S","legs":"X"},"bonus":1.300000000000001},{"view_history":[{"page_index":0,"viewing_time":3414.7999999523163},{"page_index":1,"viewing_time":13487.800000011921},{"page_index":2,"viewing_time":11360.100000023842},{"page_index":3,"viewing_time":25399.899999976158},{"page_index":4,"viewing_time":9032.199999988079},{"page_index":5,"viewing_time":7303.900000035763},{"page_index":6,"viewing_time":7255.899999976158},{"page_index":7,"viewing_time":13912},{"page_index":8,"viewing_time":4456},{"page_index":9,"viewing_time":3976.100000023842},{"page_index":10,"viewing_time":3384},{"page_index":11,"viewing_time":8288.300000011921},{"page_index":12,"viewing_time":8639.599999964237},{"page_index":13,"viewing_time":1656},{"page_index":14,"viewing_time":2536}],"rt":124103,"trial_type":"instructions","trial_index":3,"time_elapsed":132039,"internal_node_id":"0.0-3.0-0.0","subject_id":"614dd12e1864621b9d8436ac","study_id":"6197b3f67c2b5cd3b6d9596a","session_id":"6197b88fd1f4f025cc1c9649","condition":"contingent","relevant_dimensions":["antennae","pattern"],"bee_group":{"antennae":"A","wings":"X","pattern":"S","legs":"X"},"bonus":1.300000000000001},{"rt":13914.600000023842,"response":{"Q0":["Two or six legs","Stripes or spots on body","Single or double wings","Antennae or no antennae"]},"question_order":[0],"trial_type":"survey-multi-select","trial_index":4,"time_elapsed":145959,"internal_node_id":"0.0-3.0-1.0","subject_id":"614dd12e1864621b9d8436ac","study_id":"6197b3f67c2b5cd3b6d9596a","session_id":"6197b88fd1f4f025cc1c9649","condition":"contingent","relevant_dimensions":["antennae","pattern"],"bee_group":{"antennae":"A","wings":"X","pattern":"S","legs":"X"},"correct":true,"bonus":1.300000000000001},{"rt":30398,"response":{"Q1":"No.","Q2":"Based on the four features of the bee.","Q3":"You do not learn if it was friendly or dangerous, and do not alter your bonus."},"question_order":[0,1,2],"trial_type":"survey-multi-choice","trial_index":5,"time_elapsed":176359,"internal_node_id":"0.0-3.0-2.0","subject_id":"614dd12e1864621b9d8436ac","study_id":"6197b3f67c2b5cd3b6d9596a","session_id":"6197b88fd1f4f025cc1c9649","condition":"contingent","relevant_dimensions":["antennae","pattern"],"bee_group":{"antennae":"A","wings":"X","pattern":"S","legs":"X"},"correct":true,"bonus":1.300000000000001},{"rt":2414.699999988079,"stimulus":"<p>Congrats, you got everything right<br>When you're ready, click the button below to continue to the experiment.</p>","response":0,"trial_type":"html-button-response","trial_index":6,"time_elapsed":178775,"internal_node_id":"0.0-3.0-3.0","subject_id":"614dd12e1864621b9d8436ac","study_id":"6197b3f67c2b5cd3b6d9596a","session_id":"6197b88fd1f4f025cc1c9649","condition":"contingent","relevant_dimensions":["antennae","pattern"],"bee_group":{"antennae":"A","wings":"X","pattern":"S","legs":"X"},"bonus":1.300000000000001},{"rt":43357.89999997616,"stimulus":"bees-with-color/bee-B1DM.svg","response":0,"trial_type":"image-button-response","trial_index":7,"time_elapsed":222135,"internal_node_id":"0.0-4.0-0.0","subject_id":"614dd12e1864621b9d8436ac","study_id":"6197b3f67c2b5cd3b6d9596a","session_id":"6197b88fd1f4f025cc1c9649","condition":"contingent","relevant_dimensions":["antennae","pattern"],"bee_group":{"antennae":"A","wings":"X","pattern":"S","legs":"X"},"action":"harvest","summary":"good-harvest","bonus":1.300000000000001},{"rt":19285.5,"stimulus":"\n                    <p><b>Action: <em>harvest</em></b></p>\n                    <p>This is the bee that you just saw.</p>\n                    <img src=\"bees-with-color/bee-B1DM.svg\" width=\"200\">\n                    <p><span class=\"greenText\"><b>Successful harvest!</b></span><br>Your pay has increased by $0.02. Your bonus pay is now $0.56.</p>\n            ","response":0,"trial_type":"html-button-response","trial_index":8,"time_elapsed":241423,"internal_node_id":"0.0-4.0-1.0","subject_id":"614dd12e1864621b9d8436ac","study_id":"6197b3f67c2b5cd3b6d9596a","session_id":"6197b88fd1f4f025cc1c9649","condition":"contingent","relevant_dimensions":["antennae","pattern"],"bee_group":{"antennae":"A","wings":"X","pattern":"S","legs":"X"},"bonus":1.300000000000001},{"rt":9206.399999976158,"stimulus":"bees-with-color/bee-B1SF.svg","response":0,"trial_type":"image-button-response","trial_index":9,"time_elapsed":250632,"internal_node_id":"0.0-4.0-0.1","subject_id":"614dd12e1864621b9d8436ac","study_id":"6197b3f67c2b5cd3b6d9596a","session_id":"6197b88fd1f4f025cc1c9649","condition":"contingent","relevant_dimensions":["antennae","pattern"],"bee_group":{"antennae":"A","wings":"X","pattern":"S","legs":"X"},"action":"harvest","summary":"good-harvest","bonus":1.300000000000001},{"rt":11709.900000035763,"stimulus":"\n                    <p><b>Action: <em>harvest</em></b></p>\n                    <p>This is the bee that you just saw.</p>\n                    <img src=\"bees-with-color/bee-B1SF.svg\" width=\"200\">\n                    <p><span class=\"greenText\"><b>Successful harvest!</b></span><br>Your pay has increased by $0.02. Your bonus pay is now $0.58.</p>\n            ","response":0,"trial_type":"html-button-response","trial_index":10,"time_elapsed":262343,"internal_node_id":"0.0-4.0-1.1","subject_id":"614dd12e1864621b9d8436ac","study_id":"6197b3f67c2b5cd3b6d9596a","session_id":"6197b88fd1f4f025cc1c9649","condition":"contingent","relevant_dimensions":["antennae","pattern"],"bee_group":{"antennae":"A","wings":"X","pattern":"S","legs":"X"},"bonus":1.300000000000001},{"rt":3878.399999976158,"stimulus":"bees-with-color/bee-A2SF.svg","response":0,"trial_type":"image-button-response","trial_index":11,"time_elapsed":266224,"internal_node_id":"0.0-4.0-0.2","subject_id":"614dd12e1864621b9d8436ac","study_id":"6197b3f67c2b5cd3b6d9596a","session_id":"6197b88fd1f4f025cc1c9649","condition":"contingent","relevant_dimensions":["antennae","pattern"],"bee_group":{"antennae":"A","wings":"X","pattern":"S","legs":"X"},"action":"harvest","summary":"bad-harvest","bonus":1.300000000000001},{"rt":20286.599999964237,"stimulus":"\n                    <p><b>Action: <em>harvest</em></b></p>\n                    <p>This is the bee that you just saw.</p>\n                    <img src=\"bees-with-color/bee-A2SF.svg\" width=\"200\">\n                    <p><span class=\"redText\">Bad choice, the bee was angry.</span><br><b>You have been stung!</b><br>Your pay has been decreased by $0.10. Your bonus pay is now $0.48.</p>\n            ","response":0,"trial_type":"html-button-response","trial_index":12,"time_elapsed":286512,"internal_node_id":"0.0-4.0-1.2","subject_id":"614dd12e1864621b9d8436ac","study_id":"6197b3f67c2b5cd3b6d9596a","session_id":"6197b88fd1f4f025cc1c9649","condition":"contingent","relevant_dimensions":["antennae","pattern"],"bee_group":{"antennae":"A","wings":"X","pattern":"S","legs":"X"},"bonus":1.300000000000001},{"rt":5862.5,"stimulus":"bees-with-color/bee-A2SM.svg","response":0,"trial_type":"image-button-response","trial_index":13,"time_elapsed":292375,"internal_node_id":"0.0-4.0-0.3","subject_id":"614dd12e1864621b9d8436ac","study_id":"6197b3f67c2b5cd3b6d9596a","session_id":"6197b88fd1f4f025cc1c9649","condition":"contingent","relevant_dimensions":["antennae","pattern"],"bee_group":{"antennae":"A","wings":"X","pattern":"S","legs":"X"},"action":"harvest","summary":"bad-harvest","bonus":1.300000000000001},{"rt":22519,"stimulus":"\n                    <p><b>Action: <em>harvest</em></b></p>\n                    <p>This is the bee that you just saw.</p>\n                    <img src=\"bees-with-color/bee-A2SM.svg\" width=\"200\">\n                    <p><span class=\"redText\">Bad choice, the bee was angry.</span><br><b>You have been stung!</b><br>Your pay has been decreased by $0.10. Your bonus pay is now $0.38.</p>\n            ","response":0,"trial_type":"html-button-response","trial_index":14,"time_elapsed":314895,"internal_node_id":"0.0-4.0-1.3","subject_id":"614dd12e1864621b9d8436ac","study_id":"6197b3f67c2b5cd3b6d9596a","session_id":"6197b88fd1f4f025cc1c9649","condition":"contingent","relevant_dimensions":["antennae","pattern"],"bee_group":{"antennae":"A","wings":"X","pattern":"S","legs":"X"},"bonus":1.300000000000001},{"rt":6966.699999988079,"stimulus":"bees-with-color/bee-A2DF.svg","response":1,"trial_type":"image-button-response","trial_index":15,"time_elapsed":321863,"internal_node_id":"0.0-4.0-0.4","subject_id":"614dd12e1864621b9d8436ac","study_id":"6197b3f67c2b5cd3b6d9596a","session_id":"6197b88fd1f4f025cc1c9649","condition":"contingent","relevant_dimensions":["antennae","pattern"],"bee_group":{"antennae":"A","wings":"X","pattern":"S","legs":"X"},"action":"avoid","summary":"bad-avoid","bonus":1.300000000000001},{"rt":3119,"stimulus":"\n                    <p><b>Action: <em>avoid</em></b></p>\n                    <p>This is the bee that you just saw.</p>\n                    <img src=\"bees-with-color/bee-A2DF.svg\" width=\"200\">\n                    <p><br>Your bonus pay is unchanged, and remains at $0.38.</p>\n            ","response":0,"trial_type":"html-button-response","trial_index":16,"time_elapsed":324983,"internal_node_id":"0.0-4.0-1.4","subject_id":"614dd12e1864621b9d8436ac","study_id":"6197b3f67c2b5cd3b6d9596a","session_id":"6197b88fd1f4f025cc1c9649","condition":"contingent","relevant_dimensions":["antennae","pattern"],"bee_group":{"antennae":"A","wings":"X","pattern":"S","legs":"X"},"bonus":1.300000000000001},{"rt":2406.7999999523163,"stimulus":"bees-with-color/bee-B1DF.svg","response":0,"trial_type":"image-button-response","trial_index":17,"time_elapsed":327391,"internal_node_id":"0.0-4.0-0.5","subject_id":"614dd12e1864621b9d8436ac","study_id":"6197b3f67c2b5cd3b6d9596a","session_id":"6197b88fd1f4f025cc1c9649","condition":"contingent","relevant_dimensions":["antennae","pattern"],"bee_group":{"antennae":"A","wings":"X","pattern":"S","legs":"X"},"action":"harvest","summary":"good-harvest","bonus":1.300000000000001},{"rt":1615.1000000238419,"stimulus":"\n                    <p><b>Action: <em>harvest</em></b></p>\n                    <p>This is the bee that you just saw.</p>\n                    <img src=\"bees-with-color/bee-B1DF.svg\" width=\"200\">\n                    <p><span class=\"greenText\"><b>Successful harvest!</b></span><br>Your pay has increased by $0.02. Your bonus pay is now $0.40.</p>\n            ","response":0,"trial_type":"html-button-response","trial_index":18,"time_elapsed":329007,"internal_node_id":"0.0-4.0-1.5","subject_id":"614dd12e1864621b9d8436ac","study_id":"6197b3f67c2b5cd3b6d9596a","session_id":"6197b88fd1f4f025cc1c9649","condition":"contingent","relevant_dimensions":["antennae","pattern"],"bee_group":{"antennae":"A","wings":"X","pattern":"S","legs":"X"},"bonus":1.300000000000001},{"rt":5198.5,"stimulus":"bees-with-color/bee-A2DM.svg","response":1,"trial_type":"image-button-response","trial_index":19,"time_elapsed":334207,"internal_node_id":"0.0-4.0-0.6","subject_id":"614dd12e1864621b9d8436ac","study_id":"6197b3f67c2b5cd3b6d9596a","session_id":"6197b88fd1f4f025cc1c9649","condition":"contingent","relevant_dimensions":["antennae","pattern"],"bee_group":{"antennae":"A","wings":"X","pattern":"S","legs":"X"},"action":"avoid","summary":"bad-avoid","bonus":1.300000000000001},{"rt":751,"stimulus":"\n                    <p><b>Action: <em>avoid</em></b></p>\n                    <p>This is the bee that you just saw.</p>\n                    <img src=\"bees-with-color/bee-A2DM.svg\" width=\"200\">\n                    <p><br>Your bonus pay is unchanged, and remains at $0.40.</p>\n            ","response":0,"trial_type":"html-button-response","trial_index":20,"time_elapsed":334959,"internal_node_id":"0.0-4.0-1.6","subject_id":"614dd12e1864621b9d8436ac","study_id":"6197b3f67c2b5cd3b6d9596a","session_id":"6197b88fd1f4f025cc1c9649","condition":"contingent","relevant_dimensions":["antennae","pattern"],"bee_group":{"antennae":"A","wings":"X","pattern":"S","legs":"X"},"bonus":1.300000000000001},{"rt":16943.100000023842,"stimulus":"bees-with-color/bee-B2DF.svg","response":0,"trial_type":"image-button-response","trial_index":21,"time_elapsed":351904,"internal_node_id":"0.0-4.0-0.7","subject_id":"614dd12e1864621b9d8436ac","study_id":"6197b3f67c2b5cd3b6d9596a","session_id":"6197b88fd1f4f025cc1c9649","condition":"contingent","relevant_dimensions":["antennae","pattern"],"bee_group":{"antennae":"A","wings":"X","pattern":"S","legs":"X"},"action":"harvest","summary":"good-harvest","bonus":1.300000000000001},{"rt":11830.699999988079,"stimulus":"\n                    <p><b>Action: <em>harvest</em></b></p>\n                    <p>This is the bee that you just saw.</p>\n                    <img src=\"bees-with-color/bee-B2DF.svg\" width=\"200\">\n                    <p><span class=\"greenText\"><b>Successful harvest!</b></span><br>Your pay has increased by $0.02. Your bonus pay is now $0.42.</p>\n            ","response":0,"trial_type":"html-button-response","trial_index":22,"time_elapsed":363735,"internal_node_id":"0.0-4.0-1.7","subject_id":"614dd12e1864621b9d8436ac","study_id":"6197b3f67c2b5cd3b6d9596a","session_id":"6197b88fd1f4f025cc1c9649","condition":"contingent","relevant_dimensions":["antennae","pattern"],"bee_group":{"antennae":"A","wings":"X","pattern":"S","legs":"X"},"bonus":1.300000000000001},{"rt":1062.3999999761581,"stimulus":"bees-with-color/bee-B2SF.svg","response":0,"trial_type":"image-button-response","trial_index":23,"time_elapsed":364799,"internal_node_id":"0.0-4.0-0.8","subject_id":"614dd12e1864621b9d8436ac","study_id":"6197b3f67c2b5cd3b6d9596a","session_id":"6197b88fd1f4f025cc1c9649","condition":"contingent","relevant_dimensions":["antennae","pattern"],"bee_group":{"antennae":"A","wings":"X","pattern":"S","legs":"X"},"action":"harvest","summary":"good-harvest","bonus":1.300000000000001},{"rt":919,"stimulus":"\n                    <p><b>Action: <em>harvest</em></b></p>\n                    <p>This is the bee that you just saw.</p>\n                    <img src=\"bees-with-color/bee-B2SF.svg\" width=\"200\">\n                    <p><span class=\"greenText\"><b>Successful harvest!</b></span><br>Your pay has increased by $0.02. Your bonus pay is now $0.44.</p>\n            ","response":0,"trial_type":"html-button-response","trial_index":24,"time_elapsed":365719,"internal_node_id":"0.0-4.0-1.8","subject_id":"614dd12e1864621b9d8436ac","study_id":"6197b3f67c2b5cd3b6d9596a","session_id":"6197b88fd1f4f025cc1c9649","condition":"contingent","relevant_dimensions":["antennae","pattern"],"bee_group":{"antennae":"A","wings":"X","pattern":"S","legs":"X"},"bonus":1.300000000000001},{"rt":919,"stimulus":"bees-with-color/bee-B2SM.svg","response":0,"trial_type":"image-button-response","trial_index":25,"time_elapsed":366639,"internal_node_id":"0.0-4.0-0.9","subject_id":"614dd12e1864621b9d8436ac","study_id":"6197b3f67c2b5cd3b6d9596a","session_id":"6197b88fd1f4f025cc1c9649","condition":"contingent","relevant_dimensions":["antennae","pattern"],"bee_group":{"antennae":"A","wings":"X","pattern":"S","legs":"X"},"action":"harvest","summary":"good-harvest","bonus":1.300000000000001},{"rt":774.8999999761581,"stimulus":"\n                    <p><b>Action: <em>harvest</em></b></p>\n                    <p>This is the bee that you just saw.</p>\n                    <img src=\"bees-with-color/bee-B2SM.svg\" width=\"200\">\n                    <p><span class=\"greenText\"><b>Successful harvest!</b></span><br>Your pay has increased by $0.02. Your bonus pay is now $0.46.</p>\n            ","response":0,"trial_type":"html-button-response","trial_index":26,"time_elapsed":367415,"internal_node_id":"0.0-4.0-1.9","subject_id":"614dd12e1864621b9d8436ac","study_id":"6197b3f67c2b5cd3b6d9596a","session_id":"6197b88fd1f4f025cc1c9649","condition":"contingent","relevant_dimensions":["antennae","pattern"],"bee_group":{"antennae":"A","wings":"X","pattern":"S","legs":"X"},"bonus":1.300000000000001},{"rt":806.9000000357628,"stimulus":"bees-with-color/bee-A1DF.svg","response":1,"trial_type":"image-button-response","trial_index":27,"time_elapsed":368223,"internal_node_id":"0.0-4.0-0.10","subject_id":"614dd12e1864621b9d8436ac","study_id":"6197b3f67c2b5cd3b6d9596a","session_id":"6197b88fd1f4f025cc1c9649","condition":"contingent","relevant_dimensions":["antennae","pattern"],"bee_group":{"antennae":"A","wings":"X","pattern":"S","legs":"X"},"action":"avoid","summary":"bad-avoid","bonus":1.300000000000001},{"rt":743.1000000238419,"stimulus":"\n                    <p><b>Action: <em>avoid</em></b></p>\n                    <p>This is the bee that you just saw.</p>\n                    <img src=\"bees-with-color/bee-A1DF.svg\" width=\"200\">\n                    <p><br>Your bonus pay is unchanged, and remains at $0.46.</p>\n            ","response":0,"trial_type":"html-button-response","trial_index":28,"time_elapsed":368967,"internal_node_id":"0.0-4.0-1.10","subject_id":"614dd12e1864621b9d8436ac","study_id":"6197b3f67c2b5cd3b6d9596a","session_id":"6197b88fd1f4f025cc1c9649","condition":"contingent","relevant_dimensions":["antennae","pattern"],"bee_group":{"antennae":"A","wings":"X","pattern":"S","legs":"X"},"bonus":1.300000000000001},{"rt":967.1000000238419,"stimulus":"bees-with-color/bee-A1DM.svg","response":1,"trial_type":"image-button-response","trial_index":29,"time_elapsed":369935,"internal_node_id":"0.0-4.0-0.11","subject_id":"614dd12e1864621b9d8436ac","study_id":"6197b3f67c2b5cd3b6d9596a","session_id":"6197b88fd1f4f025cc1c9649","condition":"contingent","relevant_dimensions":["antennae","pattern"],"bee_group":{"antennae":"A","wings":"X","pattern":"S","legs":"X"},"action":"avoid","summary":"bad-avoid","bonus":1.300000000000001},{"rt":687,"stimulus":"\n                    <p><b>Action: <em>avoid</em></b></p>\n                    <p>This is the bee that you just saw.</p>\n                    <img src=\"bees-with-color/bee-A1DM.svg\" width=\"200\">\n                    <p><br>Your bonus pay is unchanged, and remains at $0.46.</p>\n            ","response":0,"trial_type":"html-button-response","trial_index":30,"time_elapsed":370623,"internal_node_id":"0.0-4.0-1.11","subject_id":"614dd12e1864621b9d8436ac","study_id":"6197b3f67c2b5cd3b6d9596a","session_id":"6197b88fd1f4f025cc1c9649","condition":"contingent","relevant_dimensions":["antennae","pattern"],"bee_group":{"antennae":"A","wings":"X","pattern":"S","legs":"X"},"bonus":1.300000000000001},{"rt":967,"stimulus":"bees-with-color/bee-B2DM.svg","response":0,"trial_type":"image-button-response","trial_index":31,"time_elapsed":371591,"internal_node_id":"0.0-4.0-0.12","subject_id":"614dd12e1864621b9d8436ac","study_id":"6197b3f67c2b5cd3b6d9596a","session_id":"6197b88fd1f4f025cc1c9649","condition":"contingent","relevant_dimensions":["antennae","pattern"],"bee_group":{"antennae":"A","wings":"X","pattern":"S","legs":"X"},"action":"harvest","summary":"good-harvest","bonus":1.300000000000001},{"rt":759,"stimulus":"\n                    <p><b>Action: <em>harvest</em></b></p>\n                    <p>This is the bee that you just saw.</p>\n                    <img src=\"bees-with-color/bee-B2DM.svg\" width=\"200\">\n                    <p><span class=\"greenText\"><b>Successful harvest!</b></span><br>Your pay has increased by $0.02. Your bonus pay is now $0.48.</p>\n            ","response":0,"trial_type":"html-button-response","trial_index":32,"time_elapsed":372351,"internal_node_id":"0.0-4.0-1.12","subject_id":"614dd12e1864621b9d8436ac","study_id":"6197b3f67c2b5cd3b6d9596a","session_id":"6197b88fd1f4f025cc1c9649","condition":"contingent","relevant_dimensions":["antennae","pattern"],"bee_group":{"antennae":"A","wings":"X","pattern":"S","legs":"X"},"bonus":1.300000000000001},{"rt":839.0999999642372,"stimulus":"bees-with-color/bee-A1SM.svg","response":1,"trial_type":"image-button-response","trial_index":33,"time_elapsed":373191,"internal_node_id":"0.0-4.0-0.13","subject_id":"614dd12e1864621b9d8436ac","study_id":"6197b3f67c2b5cd3b6d9596a","session_id":"6197b88fd1f4f025cc1c9649","condition":"contingent","relevant_dimensions":["antennae","pattern"],"bee_group":{"antennae":"A","wings":"X","pattern":"S","legs":"X"},"action":"avoid","summary":"good-avoid","bonus":1.300000000000001},{"rt":766.8999999761581,"stimulus":"\n                    <p><b>Action: <em>avoid</em></b></p>\n                    <p>This is the bee that you just saw.</p>\n                    <img src=\"bees-with-color/bee-A1SM.svg\" width=\"200\">\n                    <p><br>Your bonus pay is unchanged, and remains at $0.48.</p>\n            ","response":0,"trial_type":"html-button-response","trial_index":34,"time_elapsed":373959,"internal_node_id":"0.0-4.0-1.13","subject_id":"614dd12e1864621b9d8436ac","study_id":"6197b3f67c2b5cd3b6d9596a","session_id":"6197b88fd1f4f025cc1c9649","condition":"contingent","relevant_dimensions":["antennae","pattern"],"bee_group":{"antennae":"A","wings":"X","pattern":"S","legs":"X"},"bonus":1.300000000000001},{"rt":823.1000000238419,"stimulus":"bees-with-color/bee-A1SF.svg","response":1,"trial_type":"image-button-response","trial_index":35,"time_elapsed":374783,"internal_node_id":"0.0-4.0-0.14","subject_id":"614dd12e1864621b9d8436ac","study_id":"6197b3f67c2b5cd3b6d9596a","session_id":"6197b88fd1f4f025cc1c9649","condition":"contingent","relevant_dimensions":["antennae","pattern"],"bee_group":{"antennae":"A","wings":"X","pattern":"S","legs":"X"},"action":"avoid","summary":"good-avoid","bonus":1.300000000000001},{"rt":735,"stimulus":"\n                    <p><b>Action: <em>avoid</em></b></p>\n                    <p>This is the bee that you just saw.</p>\n                    <img src=\"bees-with-color/bee-A1SF.svg\" width=\"200\">\n                    <p><br>Your bonus pay is unchanged, and remains at $0.48.</p>\n            ","response":0,"trial_type":"html-button-response","trial_index":36,"time_elapsed":375519,"internal_node_id":"0.0-4.0-1.14","subject_id":"614dd12e1864621b9d8436ac","study_id":"6197b3f67c2b5cd3b6d9596a","session_id":"6197b88fd1f4f025cc1c9649","condition":"contingent","relevant_dimensions":["antennae","pattern"],"bee_group":{"antennae":"A","wings":"X","pattern":"S","legs":"X"},"bonus":1.300000000000001},{"rt":735,"stimulus":"bees-with-color/bee-B1SM.svg","response":0,"trial_type":"image-button-response","trial_index":37,"time_elapsed":376255,"internal_node_id":"0.0-4.0-0.15","subject_id":"614dd12e1864621b9d8436ac","study_id":"6197b3f67c2b5cd3b6d9596a","session_id":"6197b88fd1f4f025cc1c9649","condition":"contingent","relevant_dimensions":["antennae","pattern"],"bee_group":{"antennae":"A","wings":"X","pattern":"S","legs":"X"},"action":"harvest","summary":"good-harvest","bonus":1.300000000000001},{"rt":678.8999999761581,"stimulus":"\n                    <p><b>Action: <em>harvest</em></b></p>\n                    <p>This is the bee that you just saw.</p>\n                    <img src=\"bees-with-color/bee-B1SM.svg\" width=\"200\">\n                    <p><span class=\"greenText\"><b>Successful harvest!</b></span><br>Your pay has increased by $0.02. Your bonus pay is now $0.50.</p>\n            ","response":0,"trial_type":"html-button-response","trial_index":38,"time_elapsed":376935,"internal_node_id":"0.0-4.0-1.15","subject_id":"614dd12e1864621b9d8436ac","study_id":"6197b3f67c2b5cd3b6d9596a","session_id":"6197b88fd1f4f025cc1c9649","condition":"contingent","relevant_dimensions":["antennae","pattern"],"bee_group":{"antennae":"A","wings":"X","pattern":"S","legs":"X"},"bonus":1.300000000000001},{"rt":719.0999999642372,"stimulus":"bees-with-color/bee-A1SM.svg","response":1,"trial_type":"image-button-response","trial_index":39,"time_elapsed":377655,"internal_node_id":"0.0-4.0-0.16","subject_id":"614dd12e1864621b9d8436ac","study_id":"6197b3f67c2b5cd3b6d9596a","session_id":"6197b88fd1f4f025cc1c9649","condition":"contingent","relevant_dimensions":["antennae","pattern"],"bee_group":{"antennae":"A","wings":"X","pattern":"S","legs":"X"},"action":"avoid","summary":"good-avoid","bonus":1.300000000000001},{"rt":694.8999999761581,"stimulus":"\n                    <p><b>Action: <em>avoid</em></b></p>\n                    <p>This is the bee that you just saw.</p>\n                    <img src=\"bees-with-color/bee-A1SM.svg\" width=\"200\">\n                    <p><br>Your bonus pay is unchanged, and remains at $0.50.</p>\n            ","response":0,"trial_type":"html-button-response","trial_index":40,"time_elapsed":378351,"internal_node_id":"0.0-4.0-1.16","subject_id":"614dd12e1864621b9d8436ac","study_id":"6197b3f67c2b5cd3b6d9596a","session_id":"6197b88fd1f4f025cc1c9649","condition":"contingent","relevant_dimensions":["antennae","pattern"],"bee_group":{"antennae":"A","wings":"X","pattern":"S","legs":"X"},"bonus":1.300000000000001},{"rt":687.1000000238419,"stimulus":"bees-with-color/bee-B2SF.svg","response":0,"trial_type":"image-button-response","trial_index":41,"time_elapsed":379039,"internal_node_id":"0.0-4.0-0.17","subject_id":"614dd12e1864621b9d8436ac","study_id":"6197b3f67c2b5cd3b6d9596a","session_id":"6197b88fd1f4f025cc1c9649","condition":"contingent","relevant_dimensions":["antennae","pattern"],"bee_group":{"antennae":"A","wings":"X","pattern":"S","legs":"X"},"action":"harvest","summary":"good-harvest","bonus":1.300000000000001},{"rt":686.8999999761581,"stimulus":"\n                    <p><b>Action: <em>harvest</em></b></p>\n                    <p>This is the bee that you just saw.</p>\n                    <img src=\"bees-with-color/bee-B2SF.svg\" width=\"200\">\n                    <p><span class=\"greenText\"><b>Successful harvest!</b></span><br>Your pay has increased by $0.02. Your bonus pay is now $0.52.</p>\n            ","response":0,"trial_type":"html-button-response","trial_index":42,"time_elapsed":379727,"internal_node_id":"0.0-4.0-1.17","subject_id":"614dd12e1864621b9d8436ac","study_id":"6197b3f67c2b5cd3b6d9596a","session_id":"6197b88fd1f4f025cc1c9649","condition":"contingent","relevant_dimensions":["antennae","pattern"],"bee_group":{"antennae":"A","wings":"X","pattern":"S","legs":"X"},"bonus":1.300000000000001},{"rt":655.1000000238419,"stimulus":"bees-with-color/bee-A1DF.svg","response":1,"trial_type":"image-button-response","trial_index":43,"time_elapsed":380383,"internal_node_id":"0.0-4.0-0.18","subject_id":"614dd12e1864621b9d8436ac","study_id":"6197b3f67c2b5cd3b6d9596a","session_id":"6197b88fd1f4f025cc1c9649","condition":"contingent","relevant_dimensions":["antennae","pattern"],"bee_group":{"antennae":"A","wings":"X","pattern":"S","legs":"X"},"action":"avoid","summary":"bad-avoid","bonus":1.300000000000001},{"rt":623,"stimulus":"\n                    <p><b>Action: <em>avoid</em></b></p>\n                    <p>This is the bee that you just saw.</p>\n                    <img src=\"bees-with-color/bee-A1DF.svg\" width=\"200\">\n                    <p><br>Your bonus pay is unchanged, and remains at $0.52.</p>\n            ","response":0,"trial_type":"html-button-response","trial_index":44,"time_elapsed":381007,"internal_node_id":"0.0-4.0-1.18","subject_id":"614dd12e1864621b9d8436ac","study_id":"6197b3f67c2b5cd3b6d9596a","session_id":"6197b88fd1f4f025cc1c9649","condition":"contingent","relevant_dimensions":["antennae","pattern"],"bee_group":{"antennae":"A","wings":"X","pattern":"S","legs":"X"},"bonus":1.300000000000001},{"rt":790.7999999523163,"stimulus":"bees-with-color/bee-B1DM.svg","response":0,"trial_type":"image-button-response","trial_index":45,"time_elapsed":381799,"internal_node_id":"0.0-4.0-0.19","subject_id":"614dd12e1864621b9d8436ac","study_id":"6197b3f67c2b5cd3b6d9596a","session_id":"6197b88fd1f4f025cc1c9649","condition":"contingent","relevant_dimensions":["antennae","pattern"],"bee_group":{"antennae":"A","wings":"X","pattern":"S","legs":"X"},"action":"harvest","summary":"good-harvest","bonus":1.300000000000001},{"rt":670.7999999523163,"stimulus":"\n                    <p><b>Action: <em>harvest</em></b></p>\n                    <p>This is the bee that you just saw.</p>\n                    <img src=\"bees-with-color/bee-B1DM.svg\" width=\"200\">\n                    <p><span class=\"greenText\"><b>Successful harvest!</b></span><br>Your pay has increased by $0.02. Your bonus pay is now $0.54.</p>\n            ","response":0,"trial_type":"html-button-response","trial_index":46,"time_elapsed":382471,"internal_node_id":"0.0-4.0-1.19","subject_id":"614dd12e1864621b9d8436ac","study_id":"6197b3f67c2b5cd3b6d9596a","session_id":"6197b88fd1f4f025cc1c9649","condition":"contingent","relevant_dimensions":["antennae","pattern"],"bee_group":{"antennae":"A","wings":"X","pattern":"S","legs":"X"},"bonus":1.300000000000001},{"rt":655.1999999880791,"stimulus":"bees-with-color/bee-B1SM.svg","response":0,"trial_type":"image-button-response","trial_index":47,"time_elapsed":383127,"internal_node_id":"0.0-4.0-0.20","subject_id":"614dd12e1864621b9d8436ac","study_id":"6197b3f67c2b5cd3b6d9596a","session_id":"6197b88fd1f4f025cc1c9649","condition":"contingent","relevant_dimensions":["antennae","pattern"],"bee_group":{"antennae":"A","wings":"X","pattern":"S","legs":"X"},"action":"harvest","summary":"good-harvest","bonus":1.300000000000001},{"rt":598.7999999523163,"stimulus":"\n                    <p><b>Action: <em>harvest</em></b></p>\n                    <p>This is the bee that you just saw.</p>\n                    <img src=\"bees-with-color/bee-B1SM.svg\" width=\"200\">\n                    <p><span class=\"greenText\"><b>Successful harvest!</b></span><br>Your pay has increased by $0.02. Your bonus pay is now $0.56.</p>\n            ","response":0,"trial_type":"html-button-response","trial_index":48,"time_elapsed":383727,"internal_node_id":"0.0-4.0-1.20","subject_id":"614dd12e1864621b9d8436ac","study_id":"6197b3f67c2b5cd3b6d9596a","session_id":"6197b88fd1f4f025cc1c9649","condition":"contingent","relevant_dimensions":["antennae","pattern"],"bee_group":{"antennae":"A","wings":"X","pattern":"S","legs":"X"},"bonus":1.300000000000001},{"rt":671,"stimulus":"bees-with-color/bee-B1SF.svg","response":0,"trial_type":"image-button-response","trial_index":49,"time_elapsed":384399,"internal_node_id":"0.0-4.0-0.21","subject_id":"614dd12e1864621b9d8436ac","study_id":"6197b3f67c2b5cd3b6d9596a","session_id":"6197b88fd1f4f025cc1c9649","condition":"contingent","relevant_dimensions":["antennae","pattern"],"bee_group":{"antennae":"A","wings":"X","pattern":"S","legs":"X"},"action":"harvest","summary":"good-harvest","bonus":1.300000000000001},{"rt":854.8999999761581,"stimulus":"\n                    <p><b>Action: <em>harvest</em></b></p>\n                    <p>This is the bee that you just saw.</p>\n                    <img src=\"bees-with-color/bee-B1SF.svg\" width=\"200\">\n                    <p><span class=\"greenText\"><b>Successful harvest!</b></span><br>Your pay has increased by $0.02. Your bonus pay is now $0.58.</p>\n            ","response":0,"trial_type":"html-button-response","trial_index":50,"time_elapsed":385255,"internal_node_id":"0.0-4.0-1.21","subject_id":"614dd12e1864621b9d8436ac","study_id":"6197b3f67c2b5cd3b6d9596a","session_id":"6197b88fd1f4f025cc1c9649","condition":"contingent","relevant_dimensions":["antennae","pattern"],"bee_group":{"antennae":"A","wings":"X","pattern":"S","legs":"X"},"bonus":1.300000000000001},{"rt":879.1000000238419,"stimulus":"bees-with-color/bee-A1SF.svg","response":1,"trial_type":"image-button-response","trial_index":51,"time_elapsed":386135,"internal_node_id":"0.0-4.0-0.22","subject_id":"614dd12e1864621b9d8436ac","study_id":"6197b3f67c2b5cd3b6d9596a","session_id":"6197b88fd1f4f025cc1c9649","condition":"contingent","relevant_dimensions":["antennae","pattern"],"bee_group":{"antennae":"A","wings":"X","pattern":"S","legs":"X"},"action":"avoid","summary":"good-avoid","bonus":1.300000000000001},{"rt":615,"stimulus":"\n                    <p><b>Action: <em>avoid</em></b></p>\n                    <p>This is the bee that you just saw.</p>\n                    <img src=\"bees-with-color/bee-A1SF.svg\" width=\"200\">\n                    <p><br>Your bonus pay is unchanged, and remains at $0.58.</p>\n            ","response":0,"trial_type":"html-button-response","trial_index":52,"time_elapsed":386751,"internal_node_id":"0.0-4.0-1.22","subject_id":"614dd12e1864621b9d8436ac","study_id":"6197b3f67c2b5cd3b6d9596a","session_id":"6197b88fd1f4f025cc1c9649","condition":"contingent","relevant_dimensions":["antennae","pattern"],"bee_group":{"antennae":"A","wings":"X","pattern":"S","legs":"X"},"bonus":1.300000000000001},{"rt":727.3000000119209,"stimulus":"bees-with-color/bee-A1DM.svg","response":1,"trial_type":"image-button-response","trial_index":53,"time_elapsed":387479,"internal_node_id":"0.0-4.0-0.23","subject_id":"614dd12e1864621b9d8436ac","study_id":"6197b3f67c2b5cd3b6d9596a","session_id":"6197b88fd1f4f025cc1c9649","condition":"contingent","relevant_dimensions":["antennae","pattern"],"bee_group":{"antennae":"A","wings":"X","pattern":"S","legs":"X"},"action":"avoid","summary":"bad-avoid","bonus":1.300000000000001},{"rt":623.1999999880791,"stimulus":"\n                    <p><b>Action: <em>avoid</em></b></p>\n                    <p>This is the bee that you just saw.</p>\n                    <img src=\"bees-with-color/bee-A1DM.svg\" width=\"200\">\n                    <p><br>Your bonus pay is unchanged, and remains at $0.58.</p>\n            ","response":0,"trial_type":"html-button-response","trial_index":54,"time_elapsed":388103,"internal_node_id":"0.0-4.0-1.23","subject_id":"614dd12e1864621b9d8436ac","study_id":"6197b3f67c2b5cd3b6d9596a","session_id":"6197b88fd1f4f025cc1c9649","condition":"contingent","relevant_dimensions":["antennae","pattern"],"bee_group":{"antennae":"A","wings":"X","pattern":"S","legs":"X"},"bonus":1.300000000000001},{"rt":679.1999999880791,"stimulus":"bees-with-color/bee-B2DF.svg","response":0,"trial_type":"image-button-response","trial_index":55,"time_elapsed":388783,"internal_node_id":"0.0-4.0-0.24","subject_id":"614dd12e1864621b9d8436ac","study_id":"6197b3f67c2b5cd3b6d9596a","session_id":"6197b88fd1f4f025cc1c9649","condition":"contingent","relevant_dimensions":["antennae","pattern"],"bee_group":{"antennae":"A","wings":"X","pattern":"S","legs":"X"},"action":"harvest","summary":"good-harvest","bonus":1.300000000000001},{"rt":647,"stimulus":"\n                    <p><b>Action: <em>harvest</em></b></p>\n                    <p>This is the bee that you just saw.</p>\n                    <img src=\"bees-with-color/bee-B2DF.svg\" width=\"200\">\n                    <p><span class=\"greenText\"><b>Successful harvest!</b></span><br>Your pay has increased by $0.02. Your bonus pay is now $0.60.</p>\n            ","response":0,"trial_type":"html-button-response","trial_index":56,"time_elapsed":389431,"internal_node_id":"0.0-4.0-1.24","subject_id":"614dd12e1864621b9d8436ac","study_id":"6197b3f67c2b5cd3b6d9596a","session_id":"6197b88fd1f4f025cc1c9649","condition":"contingent","relevant_dimensions":["antennae","pattern"],"bee_group":{"antennae":"A","wings":"X","pattern":"S","legs":"X"},"bonus":1.300000000000001},{"rt":767.1999999880791,"stimulus":"bees-with-color/bee-B2DM.svg","response":0,"trial_type":"image-button-response","trial_index":57,"time_elapsed":390199,"internal_node_id":"0.0-4.0-0.25","subject_id":"614dd12e1864621b9d8436ac","study_id":"6197b3f67c2b5cd3b6d9596a","session_id":"6197b88fd1f4f025cc1c9649","condition":"contingent","relevant_dimensions":["antennae","pattern"],"bee_group":{"antennae":"A","wings":"X","pattern":"S","legs":"X"},"action":"harvest","summary":"good-harvest","bonus":1.300000000000001},{"rt":655,"stimulus":"\n                    <p><b>Action: <em>harvest</em></b></p>\n                    <p>This is the bee that you just saw.</p>\n                    <img src=\"bees-with-color/bee-B2DM.svg\" width=\"200\">\n                    <p><span class=\"greenText\"><b>Successful harvest!</b></span><br>Your pay has increased by $0.02. Your bonus pay is now $0.62.</p>\n            ","response":0,"trial_type":"html-button-response","trial_index":58,"time_elapsed":390855,"internal_node_id":"0.0-4.0-1.25","subject_id":"614dd12e1864621b9d8436ac","study_id":"6197b3f67c2b5cd3b6d9596a","session_id":"6197b88fd1f4f025cc1c9649","condition":"contingent","relevant_dimensions":["antennae","pattern"],"bee_group":{"antennae":"A","wings":"X","pattern":"S","legs":"X"},"bonus":1.300000000000001},{"rt":759.1999999880791,"stimulus":"bees-with-color/bee-B1DF.svg","response":0,"trial_type":"image-button-response","trial_index":59,"time_elapsed":391615,"internal_node_id":"0.0-4.0-0.26","subject_id":"614dd12e1864621b9d8436ac","study_id":"6197b3f67c2b5cd3b6d9596a","session_id":"6197b88fd1f4f025cc1c9649","condition":"contingent","relevant_dimensions":["antennae","pattern"],"bee_group":{"antennae":"A","wings":"X","pattern":"S","legs":"X"},"action":"harvest","summary":"good-harvest","bonus":1.300000000000001},{"rt":631.0999999642372,"stimulus":"\n                    <p><b>Action: <em>harvest</em></b></p>\n                    <p>This is the bee that you just saw.</p>\n                    <img src=\"bees-with-color/bee-B1DF.svg\" width=\"200\">\n                    <p><span class=\"greenText\"><b>Successful harvest!</b></span><br>Your pay has increased by $0.02. Your bonus pay is now $0.64.</p>\n            ","response":0,"trial_type":"html-button-response","trial_index":60,"time_elapsed":392247,"internal_node_id":"0.0-4.0-1.26","subject_id":"614dd12e1864621b9d8436ac","study_id":"6197b3f67c2b5cd3b6d9596a","session_id":"6197b88fd1f4f025cc1c9649","condition":"contingent","relevant_dimensions":["antennae","pattern"],"bee_group":{"antennae":"A","wings":"X","pattern":"S","legs":"X"},"bonus":1.300000000000001},{"rt":735.1000000238419,"stimulus":"bees-with-color/bee-A2DF.svg","response":1,"trial_type":"image-button-response","trial_index":61,"time_elapsed":392983,"internal_node_id":"0.0-4.0-0.27","subject_id":"614dd12e1864621b9d8436ac","study_id":"6197b3f67c2b5cd3b6d9596a","session_id":"6197b88fd1f4f025cc1c9649","condition":"contingent","relevant_dimensions":["antennae","pattern"],"bee_group":{"antennae":"A","wings":"X","pattern":"S","legs":"X"},"action":"avoid","summary":"bad-avoid","bonus":1.300000000000001},{"rt":567.2000000476837,"stimulus":"\n                    <p><b>Action: <em>avoid</em></b></p>\n                    <p>This is the bee that you just saw.</p>\n                    <img src=\"bees-with-color/bee-A2DF.svg\" width=\"200\">\n                    <p><br>Your bonus pay is unchanged, and remains at $0.64.</p>\n            ","response":0,"trial_type":"html-button-response","trial_index":62,"time_elapsed":393551,"internal_node_id":"0.0-4.0-1.27","subject_id":"614dd12e1864621b9d8436ac","study_id":"6197b3f67c2b5cd3b6d9596a","session_id":"6197b88fd1f4f025cc1c9649","condition":"contingent","relevant_dimensions":["antennae","pattern"],"bee_group":{"antennae":"A","wings":"X","pattern":"S","legs":"X"},"bonus":1.300000000000001},{"rt":799,"stimulus":"bees-with-color/bee-A2SM.svg","response":1,"trial_type":"image-button-response","trial_index":63,"time_elapsed":394351,"internal_node_id":"0.0-4.0-0.28","subject_id":"614dd12e1864621b9d8436ac","study_id":"6197b3f67c2b5cd3b6d9596a","session_id":"6197b88fd1f4f025cc1c9649","condition":"contingent","relevant_dimensions":["antennae","pattern"],"bee_group":{"antennae":"A","wings":"X","pattern":"S","legs":"X"},"action":"avoid","summary":"good-avoid","bonus":1.300000000000001},{"rt":631.1000000238419,"stimulus":"\n                    <p><b>Action: <em>avoid</em></b></p>\n                    <p>This is the bee that you just saw.</p>\n                    <img src=\"bees-with-color/bee-A2SM.svg\" width=\"200\">\n                    <p><br>Your bonus pay is unchanged, and remains at $0.64.</p>\n            ","response":0,"trial_type":"html-button-response","trial_index":64,"time_elapsed":394983,"internal_node_id":"0.0-4.0-1.28","subject_id":"614dd12e1864621b9d8436ac","study_id":"6197b3f67c2b5cd3b6d9596a","session_id":"6197b88fd1f4f025cc1c9649","condition":"contingent","relevant_dimensions":["antennae","pattern"],"bee_group":{"antennae":"A","wings":"X","pattern":"S","legs":"X"},"bonus":1.300000000000001},{"rt":775.0999999642372,"stimulus":"bees-with-color/bee-B2SM.svg","response":0,"trial_type":"image-button-response","trial_index":65,"time_elapsed":395759,"internal_node_id":"0.0-4.0-0.29","subject_id":"614dd12e1864621b9d8436ac","study_id":"6197b3f67c2b5cd3b6d9596a","session_id":"6197b88fd1f4f025cc1c9649","condition":"contingent","relevant_dimensions":["antennae","pattern"],"bee_group":{"antennae":"A","wings":"X","pattern":"S","legs":"X"},"action":"harvest","summary":"good-harvest","bonus":1.300000000000001},{"rt":703.1999999880791,"stimulus":"\n                    <p><b>Action: <em>harvest</em></b></p>\n                    <p>This is the bee that you just saw.</p>\n                    <img src=\"bees-with-color/bee-B2SM.svg\" width=\"200\">\n                    <p><span class=\"greenText\"><b>Successful harvest!</b></span><br>Your pay has increased by $0.02. Your bonus pay is now $0.66.</p>\n            ","response":0,"trial_type":"html-button-response","trial_index":66,"time_elapsed":396463,"internal_node_id":"0.0-4.0-1.29","subject_id":"614dd12e1864621b9d8436ac","study_id":"6197b3f67c2b5cd3b6d9596a","session_id":"6197b88fd1f4f025cc1c9649","condition":"contingent","relevant_dimensions":["antennae","pattern"],"bee_group":{"antennae":"A","wings":"X","pattern":"S","legs":"X"},"bonus":1.300000000000001},{"rt":639.1999999880791,"stimulus":"bees-with-color/bee-A2SF.svg","response":1,"trial_type":"image-button-response","trial_index":67,"time_elapsed":397103,"internal_node_id":"0.0-4.0-0.30","subject_id":"614dd12e1864621b9d8436ac","study_id":"6197b3f67c2b5cd3b6d9596a","session_id":"6197b88fd1f4f025cc1c9649","condition":"contingent","relevant_dimensions":["antennae","pattern"],"bee_group":{"antennae":"A","wings":"X","pattern":"S","legs":"X"},"action":"avoid","summary":"good-avoid","bonus":1.300000000000001},{"rt":647.1000000238419,"stimulus":"\n                    <p><b>Action: <em>avoid</em></b></p>\n                    <p>This is the bee that you just saw.</p>\n                    <img src=\"bees-with-color/bee-A2SF.svg\" width=\"200\">\n                    <p><br>Your bonus pay is unchanged, and remains at $0.66.</p>\n            ","response":0,"trial_type":"html-button-response","trial_index":68,"time_elapsed":397751,"internal_node_id":"0.0-4.0-1.30","subject_id":"614dd12e1864621b9d8436ac","study_id":"6197b3f67c2b5cd3b6d9596a","session_id":"6197b88fd1f4f025cc1c9649","condition":"contingent","relevant_dimensions":["antennae","pattern"],"bee_group":{"antennae":"A","wings":"X","pattern":"S","legs":"X"},"bonus":1.300000000000001},{"rt":759.1000000238419,"stimulus":"bees-with-color/bee-A2DM.svg","response":1,"trial_type":"image-button-response","trial_index":69,"time_elapsed":398511,"internal_node_id":"0.0-4.0-0.31","subject_id":"614dd12e1864621b9d8436ac","study_id":"6197b3f67c2b5cd3b6d9596a","session_id":"6197b88fd1f4f025cc1c9649","condition":"contingent","relevant_dimensions":["antennae","pattern"],"bee_group":{"antennae":"A","wings":"X","pattern":"S","legs":"X"},"action":"avoid","summary":"bad-avoid","bonus":1.300000000000001},{"rt":622.8999999761581,"stimulus":"\n                    <p><b>Action: <em>avoid</em></b></p>\n                    <p>This is the bee that you just saw.</p>\n                    <img src=\"bees-with-color/bee-A2DM.svg\" width=\"200\">\n                    <p><br>Your bonus pay is unchanged, and remains at $0.66.</p>\n            ","response":0,"trial_type":"html-button-response","trial_index":70,"time_elapsed":399135,"internal_node_id":"0.0-4.0-1.31","subject_id":"614dd12e1864621b9d8436ac","study_id":"6197b3f67c2b5cd3b6d9596a","session_id":"6197b88fd1f4f025cc1c9649","condition":"contingent","relevant_dimensions":["antennae","pattern"],"bee_group":{"antennae":"A","wings":"X","pattern":"S","legs":"X"},"bonus":1.300000000000001},{"rt":727.1000000238419,"stimulus":"bees-with-color/bee-B1SM.svg","response":0,"trial_type":"image-button-response","trial_index":71,"time_elapsed":399863,"internal_node_id":"0.0-4.0-0.32","subject_id":"614dd12e1864621b9d8436ac","study_id":"6197b3f67c2b5cd3b6d9596a","session_id":"6197b88fd1f4f025cc1c9649","condition":"contingent","relevant_dimensions":["antennae","pattern"],"bee_group":{"antennae":"A","wings":"X","pattern":"S","legs":"X"},"action":"harvest","summary":"good-harvest","bonus":1.300000000000001},{"rt":663,"stimulus":"\n                    <p><b>Action: <em>harvest</em></b></p>\n                    <p>This is the bee that you just saw.</p>\n                    <img src=\"bees-with-color/bee-B1SM.svg\" width=\"200\">\n                    <p><span class=\"greenText\"><b>Successful harvest!</b></span><br>Your pay has increased by $0.02. Your bonus pay is now $0.68.</p>\n            ","response":0,"trial_type":"html-button-response","trial_index":72,"time_elapsed":400527,"internal_node_id":"0.0-4.0-1.32","subject_id":"614dd12e1864621b9d8436ac","study_id":"6197b3f67c2b5cd3b6d9596a","session_id":"6197b88fd1f4f025cc1c9649","condition":"contingent","relevant_dimensions":["antennae","pattern"],"bee_group":{"antennae":"A","wings":"X","pattern":"S","legs":"X"},"bonus":1.300000000000001},{"rt":615.1000000238419,"stimulus":"bees-with-color/bee-B1DM.svg","response":0,"trial_type":"image-button-response","trial_index":73,"time_elapsed":401143,"internal_node_id":"0.0-4.0-0.33","subject_id":"614dd12e1864621b9d8436ac","study_id":"6197b3f67c2b5cd3b6d9596a","session_id":"6197b88fd1f4f025cc1c9649","condition":"contingent","relevant_dimensions":["antennae","pattern"],"bee_group":{"antennae":"A","wings":"X","pattern":"S","legs":"X"},"action":"harvest","summary":"good-harvest","bonus":1.300000000000001},{"rt":655,"stimulus":"\n                    <p><b>Action: <em>harvest</em></b></p>\n                    <p>This is the bee that you just saw.</p>\n                    <img src=\"bees-with-color/bee-B1DM.svg\" width=\"200\">\n                    <p><span class=\"greenText\"><b>Successful harvest!</b></span><br>Your pay has increased by $0.02. Your bonus pay is now $0.70.</p>\n            ","response":0,"trial_type":"html-button-response","trial_index":74,"time_elapsed":401799,"internal_node_id":"0.0-4.0-1.33","subject_id":"614dd12e1864621b9d8436ac","study_id":"6197b3f67c2b5cd3b6d9596a","session_id":"6197b88fd1f4f025cc1c9649","condition":"contingent","relevant_dimensions":["antennae","pattern"],"bee_group":{"antennae":"A","wings":"X","pattern":"S","legs":"X"},"bonus":1.300000000000001},{"rt":943,"stimulus":"bees-with-color/bee-A2DF.svg","response":1,"trial_type":"image-button-response","trial_index":75,"time_elapsed":402743,"internal_node_id":"0.0-4.0-0.34","subject_id":"614dd12e1864621b9d8436ac","study_id":"6197b3f67c2b5cd3b6d9596a","session_id":"6197b88fd1f4f025cc1c9649","condition":"contingent","relevant_dimensions":["antennae","pattern"],"bee_group":{"antennae":"A","wings":"X","pattern":"S","legs":"X"},"action":"avoid","summary":"bad-avoid","bonus":1.300000000000001},{"rt":655.1000000238419,"stimulus":"\n                    <p><b>Action: <em>avoid</em></b></p>\n                    <p>This is the bee that you just saw.</p>\n                    <img src=\"bees-with-color/bee-A2DF.svg\" width=\"200\">\n                    <p><br>Your bonus pay is unchanged, and remains at $0.70.</p>\n            ","response":0,"trial_type":"html-button-response","trial_index":76,"time_elapsed":403399,"internal_node_id":"0.0-4.0-1.34","subject_id":"614dd12e1864621b9d8436ac","study_id":"6197b3f67c2b5cd3b6d9596a","session_id":"6197b88fd1f4f025cc1c9649","condition":"contingent","relevant_dimensions":["antennae","pattern"],"bee_group":{"antennae":"A","wings":"X","pattern":"S","legs":"X"},"bonus":1.300000000000001},{"rt":1255,"stimulus":"bees-with-color/bee-A2SF.svg","response":1,"trial_type":"image-button-response","trial_index":77,"time_elapsed":404655,"internal_node_id":"0.0-4.0-0.35","subject_id":"614dd12e1864621b9d8436ac","study_id":"6197b3f67c2b5cd3b6d9596a","session_id":"6197b88fd1f4f025cc1c9649","condition":"contingent","relevant_dimensions":["antennae","pattern"],"bee_group":{"antennae":"A","wings":"X","pattern":"S","legs":"X"},"action":"avoid","summary":"good-avoid","bonus":1.300000000000001},{"rt":535,"stimulus":"\n                    <p><b>Action: <em>avoid</em></b></p>\n                    <p>This is the bee that you just saw.</p>\n                    <img src=\"bees-with-color/bee-A2SF.svg\" width=\"200\">\n                    <p><br>Your bonus pay is unchanged, and remains at $0.70.</p>\n            ","response":0,"trial_type":"html-button-response","trial_index":78,"time_elapsed":405191,"internal_node_id":"0.0-4.0-1.35","subject_id":"614dd12e1864621b9d8436ac","study_id":"6197b3f67c2b5cd3b6d9596a","session_id":"6197b88fd1f4f025cc1c9649","condition":"contingent","relevant_dimensions":["antennae","pattern"],"bee_group":{"antennae":"A","wings":"X","pattern":"S","legs":"X"},"bonus":1.300000000000001},{"rt":655.1000000238419,"stimulus":"bees-with-color/bee-A2DM.svg","response":1,"trial_type":"image-button-response","trial_index":79,"time_elapsed":405847,"internal_node_id":"0.0-4.0-0.36","subject_id":"614dd12e1864621b9d8436ac","study_id":"6197b3f67c2b5cd3b6d9596a","session_id":"6197b88fd1f4f025cc1c9649","condition":"contingent","relevant_dimensions":["antennae","pattern"],"bee_group":{"antennae":"A","wings":"X","pattern":"S","legs":"X"},"action":"avoid","summary":"bad-avoid","bonus":1.300000000000001},{"rt":1007,"stimulus":"\n                    <p><b>Action: <em>avoid</em></b></p>\n                    <p>This is the bee that you just saw.</p>\n                    <img src=\"bees-with-color/bee-A2DM.svg\" width=\"200\">\n                    <p><br>Your bonus pay is unchanged, and remains at $0.70.</p>\n            ","response":0,"trial_type":"html-button-response","trial_index":80,"time_elapsed":406855,"internal_node_id":"0.0-4.0-1.36","subject_id":"614dd12e1864621b9d8436ac","study_id":"6197b3f67c2b5cd3b6d9596a","session_id":"6197b88fd1f4f025cc1c9649","condition":"contingent","relevant_dimensions":["antennae","pattern"],"bee_group":{"antennae":"A","wings":"X","pattern":"S","legs":"X"},"bonus":1.300000000000001},{"rt":575.1000000238419,"stimulus":"bees-with-color/bee-A1SF.svg","response":1,"trial_type":"image-button-response","trial_index":81,"time_elapsed":407431,"internal_node_id":"0.0-4.0-0.37","subject_id":"614dd12e1864621b9d8436ac","study_id":"6197b3f67c2b5cd3b6d9596a","session_id":"6197b88fd1f4f025cc1c9649","condition":"contingent","relevant_dimensions":["antennae","pattern"],"bee_group":{"antennae":"A","wings":"X","pattern":"S","legs":"X"},"action":"avoid","summary":"good-avoid","bonus":1.300000000000001},{"rt":526.8999999761581,"stimulus":"\n                    <p><b>Action: <em>avoid</em></b></p>\n                    <p>This is the bee that you just saw.</p>\n                    <img src=\"bees-with-color/bee-A1SF.svg\" width=\"200\">\n                    <p><br>Your bonus pay is unchanged, and remains at $0.70.</p>\n            ","response":0,"trial_type":"html-button-response","trial_index":82,"time_elapsed":407959,"internal_node_id":"0.0-4.0-1.37","subject_id":"614dd12e1864621b9d8436ac","study_id":"6197b3f67c2b5cd3b6d9596a","session_id":"6197b88fd1f4f025cc1c9649","condition":"contingent","relevant_dimensions":["antennae","pattern"],"bee_group":{"antennae":"A","wings":"X","pattern":"S","legs":"X"},"bonus":1.300000000000001},{"rt":831.1000000238419,"stimulus":"bees-with-color/bee-A1DF.svg","response":1,"trial_type":"image-button-response","trial_index":83,"time_elapsed":408791,"internal_node_id":"0.0-4.0-0.38","subject_id":"614dd12e1864621b9d8436ac","study_id":"6197b3f67c2b5cd3b6d9596a","session_id":"6197b88fd1f4f025cc1c9649","condition":"contingent","relevant_dimensions":["antennae","pattern"],"bee_group":{"antennae":"A","wings":"X","pattern":"S","legs":"X"},"action":"avoid","summary":"bad-avoid","bonus":1.300000000000001},{"rt":734.7999999523163,"stimulus":"\n                    <p><b>Action: <em>avoid</em></b></p>\n                    <p>This is the bee that you just saw.</p>\n                    <img src=\"bees-with-color/bee-A1DF.svg\" width=\"200\">\n                    <p><br>Your bonus pay is unchanged, and remains at $0.70.</p>\n            ","response":0,"trial_type":"html-button-response","trial_index":84,"time_elapsed":409527,"internal_node_id":"0.0-4.0-1.38","subject_id":"614dd12e1864621b9d8436ac","study_id":"6197b3f67c2b5cd3b6d9596a","session_id":"6197b88fd1f4f025cc1c9649","condition":"contingent","relevant_dimensions":["antennae","pattern"],"bee_group":{"antennae":"A","wings":"X","pattern":"S","legs":"X"},"bonus":1.300000000000001},{"rt":895.1000000238419,"stimulus":"bees-with-color/bee-B2DM.svg","response":0,"trial_type":"image-button-response","trial_index":85,"time_elapsed":410423,"internal_node_id":"0.0-4.0-0.39","subject_id":"614dd12e1864621b9d8436ac","study_id":"6197b3f67c2b5cd3b6d9596a","session_id":"6197b88fd1f4f025cc1c9649","condition":"contingent","relevant_dimensions":["antennae","pattern"],"bee_group":{"antennae":"A","wings":"X","pattern":"S","legs":"X"},"action":"harvest","summary":"good-harvest","bonus":1.300000000000001},{"rt":550.8999999761581,"stimulus":"\n                    <p><b>Action: <em>harvest</em></b></p>\n                    <p>This is the bee that you just saw.</p>\n                    <img src=\"bees-with-color/bee-B2DM.svg\" width=\"200\">\n                    <p><span class=\"greenText\"><b>Successful harvest!</b></span><br>Your pay has increased by $0.02. Your bonus pay is now $0.72.</p>\n            ","response":0,"trial_type":"html-button-response","trial_index":86,"time_elapsed":410975,"internal_node_id":"0.0-4.0-1.39","subject_id":"614dd12e1864621b9d8436ac","study_id":"6197b3f67c2b5cd3b6d9596a","session_id":"6197b88fd1f4f025cc1c9649","condition":"contingent","relevant_dimensions":["antennae","pattern"],"bee_group":{"antennae":"A","wings":"X","pattern":"S","legs":"X"},"bonus":1.300000000000001},{"rt":887,"stimulus":"bees-with-color/bee-B2SF.svg","response":0,"trial_type":"image-button-response","trial_index":87,"time_elapsed":411863,"internal_node_id":"0.0-4.0-0.40","subject_id":"614dd12e1864621b9d8436ac","study_id":"6197b3f67c2b5cd3b6d9596a","session_id":"6197b88fd1f4f025cc1c9649","condition":"contingent","relevant_dimensions":["antennae","pattern"],"bee_group":{"antennae":"A","wings":"X","pattern":"S","legs":"X"},"action":"harvest","summary":"good-harvest","bonus":1.300000000000001},{"rt":510.89999997615814,"stimulus":"\n                    <p><b>Action: <em>harvest</em></b></p>\n                    <p>This is the bee that you just saw.</p>\n                    <img src=\"bees-with-color/bee-B2SF.svg\" width=\"200\">\n                    <p><span class=\"greenText\"><b>Successful harvest!</b></span><br>Your pay has increased by $0.02. Your bonus pay is now $0.74.</p>\n            ","response":0,"trial_type":"html-button-response","trial_index":88,"time_elapsed":412375,"internal_node_id":"0.0-4.0-1.40","subject_id":"614dd12e1864621b9d8436ac","study_id":"6197b3f67c2b5cd3b6d9596a","session_id":"6197b88fd1f4f025cc1c9649","condition":"contingent","relevant_dimensions":["antennae","pattern"],"bee_group":{"antennae":"A","wings":"X","pattern":"S","legs":"X"},"bonus":1.300000000000001},{"rt":743,"stimulus":"bees-with-color/bee-A1DM.svg","response":1,"trial_type":"image-button-response","trial_index":89,"time_elapsed":413119,"internal_node_id":"0.0-4.0-0.41","subject_id":"614dd12e1864621b9d8436ac","study_id":"6197b3f67c2b5cd3b6d9596a","session_id":"6197b88fd1f4f025cc1c9649","condition":"contingent","relevant_dimensions":["antennae","pattern"],"bee_group":{"antennae":"A","wings":"X","pattern":"S","legs":"X"},"action":"avoid","summary":"bad-avoid","bonus":1.300000000000001},{"rt":598.8000000119209,"stimulus":"\n                    <p><b>Action: <em>avoid</em></b></p>\n                    <p>This is the bee that you just saw.</p>\n                    <img src=\"bees-with-color/bee-A1DM.svg\" width=\"200\">\n                    <p><br>Your bonus pay is unchanged, and remains at $0.74.</p>\n            ","response":0,"trial_type":"html-button-response","trial_index":90,"time_elapsed":413719,"internal_node_id":"0.0-4.0-1.41","subject_id":"614dd12e1864621b9d8436ac","study_id":"6197b3f67c2b5cd3b6d9596a","session_id":"6197b88fd1f4f025cc1c9649","condition":"contingent","relevant_dimensions":["antennae","pattern"],"bee_group":{"antennae":"A","wings":"X","pattern":"S","legs":"X"},"bonus":1.300000000000001},{"rt":735,"stimulus":"bees-with-color/bee-A1SM.svg","response":1,"trial_type":"image-button-response","trial_index":91,"time_elapsed":414455,"internal_node_id":"0.0-4.0-0.42","subject_id":"614dd12e1864621b9d8436ac","study_id":"6197b3f67c2b5cd3b6d9596a","session_id":"6197b88fd1f4f025cc1c9649","condition":"contingent","relevant_dimensions":["antennae","pattern"],"bee_group":{"antennae":"A","wings":"X","pattern":"S","legs":"X"},"action":"avoid","summary":"good-avoid","bonus":1.300000000000001},{"rt":631,"stimulus":"\n                    <p><b>Action: <em>avoid</em></b></p>\n                    <p>This is the bee that you just saw.</p>\n                    <img src=\"bees-with-color/bee-A1SM.svg\" width=\"200\">\n                    <p><br>Your bonus pay is unchanged, and remains at $0.74.</p>\n            ","response":0,"trial_type":"html-button-response","trial_index":92,"time_elapsed":415087,"internal_node_id":"0.0-4.0-1.42","subject_id":"614dd12e1864621b9d8436ac","study_id":"6197b3f67c2b5cd3b6d9596a","session_id":"6197b88fd1f4f025cc1c9649","condition":"contingent","relevant_dimensions":["antennae","pattern"],"bee_group":{"antennae":"A","wings":"X","pattern":"S","legs":"X"},"bonus":1.300000000000001},{"rt":879.3999999761581,"stimulus":"bees-with-color/bee-B2DF.svg","response":0,"trial_type":"image-button-response","trial_index":93,"time_elapsed":415967,"internal_node_id":"0.0-4.0-0.43","subject_id":"614dd12e1864621b9d8436ac","study_id":"6197b3f67c2b5cd3b6d9596a","session_id":"6197b88fd1f4f025cc1c9649","condition":"contingent","relevant_dimensions":["antennae","pattern"],"bee_group":{"antennae":"A","wings":"X","pattern":"S","legs":"X"},"action":"harvest","summary":"good-harvest","bonus":1.300000000000001},{"rt":591.1999999880791,"stimulus":"\n                    <p><b>Action: <em>harvest</em></b></p>\n                    <p>This is the bee that you just saw.</p>\n                    <img src=\"bees-with-color/bee-B2DF.svg\" width=\"200\">\n                    <p><span class=\"greenText\"><b>Successful harvest!</b></span><br>Your pay has increased by $0.02. Your bonus pay is now $0.76.</p>\n            ","response":0,"trial_type":"html-button-response","trial_index":94,"time_elapsed":416559,"internal_node_id":"0.0-4.0-1.43","subject_id":"614dd12e1864621b9d8436ac","study_id":"6197b3f67c2b5cd3b6d9596a","session_id":"6197b88fd1f4f025cc1c9649","condition":"contingent","relevant_dimensions":["antennae","pattern"],"bee_group":{"antennae":"A","wings":"X","pattern":"S","legs":"X"},"bonus":1.300000000000001},{"rt":632.0999999642372,"stimulus":"bees-with-color/bee-B1SF.svg","response":0,"trial_type":"image-button-response","trial_index":95,"time_elapsed":417192,"internal_node_id":"0.0-4.0-0.44","subject_id":"614dd12e1864621b9d8436ac","study_id":"6197b3f67c2b5cd3b6d9596a","session_id":"6197b88fd1f4f025cc1c9649","condition":"contingent","relevant_dimensions":["antennae","pattern"],"bee_group":{"antennae":"A","wings":"X","pattern":"S","legs":"X"},"action":"harvest","summary":"good-harvest","bonus":1.300000000000001},{"rt":662.3000000119209,"stimulus":"\n                    <p><b>Action: <em>harvest</em></b></p>\n                    <p>This is the bee that you just saw.</p>\n                    <img src=\"bees-with-color/bee-B1SF.svg\" width=\"200\">\n                    <p><span class=\"greenText\"><b>Successful harvest!</b></span><br>Your pay has increased by $0.02. Your bonus pay is now $0.78.</p>\n            ","response":0,"trial_type":"html-button-response","trial_index":96,"time_elapsed":417855,"internal_node_id":"0.0-4.0-1.44","subject_id":"614dd12e1864621b9d8436ac","study_id":"6197b3f67c2b5cd3b6d9596a","session_id":"6197b88fd1f4f025cc1c9649","condition":"contingent","relevant_dimensions":["antennae","pattern"],"bee_group":{"antennae":"A","wings":"X","pattern":"S","legs":"X"},"bonus":1.300000000000001},{"rt":535.3000000119209,"stimulus":"bees-with-color/bee-B1DF.svg","response":0,"trial_type":"image-button-response","trial_index":97,"time_elapsed":418391,"internal_node_id":"0.0-4.0-0.45","subject_id":"614dd12e1864621b9d8436ac","study_id":"6197b3f67c2b5cd3b6d9596a","session_id":"6197b88fd1f4f025cc1c9649","condition":"contingent","relevant_dimensions":["antennae","pattern"],"bee_group":{"antennae":"A","wings":"X","pattern":"S","legs":"X"},"action":"harvest","summary":"good-harvest","bonus":1.300000000000001},{"rt":575,"stimulus":"\n                    <p><b>Action: <em>harvest</em></b></p>\n                    <p>This is the bee that you just saw.</p>\n                    <img src=\"bees-with-color/bee-B1DF.svg\" width=\"200\">\n                    <p><span class=\"greenText\"><b>Successful harvest!</b></span><br>Your pay has increased by $0.02. Your bonus pay is now $0.80.</p>\n            ","response":0,"trial_type":"html-button-response","trial_index":98,"time_elapsed":418967,"internal_node_id":"0.0-4.0-1.45","subject_id":"614dd12e1864621b9d8436ac","study_id":"6197b3f67c2b5cd3b6d9596a","session_id":"6197b88fd1f4f025cc1c9649","condition":"contingent","relevant_dimensions":["antennae","pattern"],"bee_group":{"antennae":"A","wings":"X","pattern":"S","legs":"X"},"bonus":1.300000000000001},{"rt":823.3999999761581,"stimulus":"bees-with-color/bee-B2SM.svg","response":0,"trial_type":"image-button-response","trial_index":99,"time_elapsed":419791,"internal_node_id":"0.0-4.0-0.46","subject_id":"614dd12e1864621b9d8436ac","study_id":"6197b3f67c2b5cd3b6d9596a","session_id":"6197b88fd1f4f025cc1c9649","condition":"contingent","relevant_dimensions":["antennae","pattern"],"bee_group":{"antennae":"A","wings":"X","pattern":"S","legs":"X"},"action":"harvest","summary":"good-harvest","bonus":1.300000000000001},{"rt":623.0999999642372,"stimulus":"\n                    <p><b>Action: <em>harvest</em></b></p>\n                    <p>This is the bee that you just saw.</p>\n                    <img src=\"bees-with-color/bee-B2SM.svg\" width=\"200\">\n                    <p><span class=\"greenText\"><b>Successful harvest!</b></span><br>Your pay has increased by $0.02. Your bonus pay is now $0.82.</p>\n            ","response":0,"trial_type":"html-button-response","trial_index":100,"time_elapsed":420415,"internal_node_id":"0.0-4.0-1.46","subject_id":"614dd12e1864621b9d8436ac","study_id":"6197b3f67c2b5cd3b6d9596a","session_id":"6197b88fd1f4f025cc1c9649","condition":"contingent","relevant_dimensions":["antennae","pattern"],"bee_group":{"antennae":"A","wings":"X","pattern":"S","legs":"X"},"bonus":1.300000000000001},{"rt":887.0999999642372,"stimulus":"bees-with-color/bee-A2SM.svg","response":1,"trial_type":"image-button-response","trial_index":101,"time_elapsed":421303,"internal_node_id":"0.0-4.0-0.47","subject_id":"614dd12e1864621b9d8436ac","study_id":"6197b3f67c2b5cd3b6d9596a","session_id":"6197b88fd1f4f025cc1c9649","condition":"contingent","relevant_dimensions":["antennae","pattern"],"bee_group":{"antennae":"A","wings":"X","pattern":"S","legs":"X"},"action":"avoid","summary":"good-avoid","bonus":1.300000000000001},{"rt":560,"stimulus":"\n                    <p><b>Action: <em>avoid</em></b></p>\n                    <p>This is the bee that you just saw.</p>\n                    <img src=\"bees-with-color/bee-A2SM.svg\" width=\"200\">\n                    <p><br>Your bonus pay is unchanged, and remains at $0.82.</p>\n            ","response":0,"trial_type":"html-button-response","trial_index":102,"time_elapsed":421864,"internal_node_id":"0.0-4.0-1.47","subject_id":"614dd12e1864621b9d8436ac","study_id":"6197b3f67c2b5cd3b6d9596a","session_id":"6197b88fd1f4f025cc1c9649","condition":"contingent","relevant_dimensions":["antennae","pattern"],"bee_group":{"antennae":"A","wings":"X","pattern":"S","legs":"X"},"bonus":1.300000000000001},{"rt":638.3999999761581,"stimulus":"bees-with-color/bee-B1DM.svg","response":0,"trial_type":"image-button-response","trial_index":103,"time_elapsed":422503,"internal_node_id":"0.0-4.0-0.48","subject_id":"614dd12e1864621b9d8436ac","study_id":"6197b3f67c2b5cd3b6d9596a","session_id":"6197b88fd1f4f025cc1c9649","condition":"contingent","relevant_dimensions":["antennae","pattern"],"bee_group":{"antennae":"A","wings":"X","pattern":"S","legs":"X"},"action":"harvest","summary":"good-harvest","bonus":1.300000000000001},{"rt":567.1999999880791,"stimulus":"\n                    <p><b>Action: <em>harvest</em></b></p>\n                    <p>This is the bee that you just saw.</p>\n                    <img src=\"bees-with-color/bee-B1DM.svg\" width=\"200\">\n                    <p><span class=\"greenText\"><b>Successful harvest!</b></span><br>Your pay has increased by $0.02. Your bonus pay is now $0.84.</p>\n            ","response":0,"trial_type":"html-button-response","trial_index":104,"time_elapsed":423071,"internal_node_id":"0.0-4.0-1.48","subject_id":"614dd12e1864621b9d8436ac","study_id":"6197b3f67c2b5cd3b6d9596a","session_id":"6197b88fd1f4f025cc1c9649","condition":"contingent","relevant_dimensions":["antennae","pattern"],"bee_group":{"antennae":"A","wings":"X","pattern":"S","legs":"X"},"bonus":1.300000000000001},{"rt":623.1000000238419,"stimulus":"bees-with-color/bee-A1DF.svg","response":1,"trial_type":"image-button-response","trial_index":105,"time_elapsed":423695,"internal_node_id":"0.0-4.0-0.49","subject_id":"614dd12e1864621b9d8436ac","study_id":"6197b3f67c2b5cd3b6d9596a","session_id":"6197b88fd1f4f025cc1c9649","condition":"contingent","relevant_dimensions":["antennae","pattern"],"bee_group":{"antennae":"A","wings":"X","pattern":"S","legs":"X"},"action":"avoid","summary":"bad-avoid","bonus":1.300000000000001},{"rt":567.2000000476837,"stimulus":"\n                    <p><b>Action: <em>avoid</em></b></p>\n                    <p>This is the bee that you just saw.</p>\n                    <img src=\"bees-with-color/bee-A1DF.svg\" width=\"200\">\n                    <p><br>Your bonus pay is unchanged, and remains at $0.84.</p>\n            ","response":0,"trial_type":"html-button-response","trial_index":106,"time_elapsed":424263,"internal_node_id":"0.0-4.0-1.49","subject_id":"614dd12e1864621b9d8436ac","study_id":"6197b3f67c2b5cd3b6d9596a","session_id":"6197b88fd1f4f025cc1c9649","condition":"contingent","relevant_dimensions":["antennae","pattern"],"bee_group":{"antennae":"A","wings":"X","pattern":"S","legs":"X"},"bonus":1.300000000000001},{"rt":663.2000000476837,"stimulus":"bees-with-color/bee-A2DM.svg","response":1,"trial_type":"image-button-response","trial_index":107,"time_elapsed":424927,"internal_node_id":"0.0-4.0-0.50","subject_id":"614dd12e1864621b9d8436ac","study_id":"6197b3f67c2b5cd3b6d9596a","session_id":"6197b88fd1f4f025cc1c9649","condition":"contingent","relevant_dimensions":["antennae","pattern"],"bee_group":{"antennae":"A","wings":"X","pattern":"S","legs":"X"},"action":"avoid","summary":"bad-avoid","bonus":1.300000000000001},{"rt":543,"stimulus":"\n                    <p><b>Action: <em>avoid</em></b></p>\n                    <p>This is the bee that you just saw.</p>\n                    <img src=\"bees-with-color/bee-A2DM.svg\" width=\"200\">\n                    <p><br>Your bonus pay is unchanged, and remains at $0.84.</p>\n            ","response":0,"trial_type":"html-button-response","trial_index":108,"time_elapsed":425471,"internal_node_id":"0.0-4.0-1.50","subject_id":"614dd12e1864621b9d8436ac","study_id":"6197b3f67c2b5cd3b6d9596a","session_id":"6197b88fd1f4f025cc1c9649","condition":"contingent","relevant_dimensions":["antennae","pattern"],"bee_group":{"antennae":"A","wings":"X","pattern":"S","legs":"X"},"bonus":1.300000000000001},{"rt":695.1000000238419,"stimulus":"bees-with-color/bee-B2DF.svg","response":0,"trial_type":"image-button-response","trial_index":109,"time_elapsed":426167,"internal_node_id":"0.0-4.0-0.51","subject_id":"614dd12e1864621b9d8436ac","study_id":"6197b3f67c2b5cd3b6d9596a","session_id":"6197b88fd1f4f025cc1c9649","condition":"contingent","relevant_dimensions":["antennae","pattern"],"bee_group":{"antennae":"A","wings":"X","pattern":"S","legs":"X"},"action":"harvest","summary":"good-harvest","bonus":1.300000000000001},{"rt":583.1000000238419,"stimulus":"\n                    <p><b>Action: <em>harvest</em></b></p>\n                    <p>This is the bee that you just saw.</p>\n                    <img src=\"bees-with-color/bee-B2DF.svg\" width=\"200\">\n                    <p><span class=\"greenText\"><b>Successful harvest!</b></span><br>Your pay has increased by $0.02. Your bonus pay is now $0.86.</p>\n            ","response":0,"trial_type":"html-button-response","trial_index":110,"time_elapsed":426751,"internal_node_id":"0.0-4.0-1.51","subject_id":"614dd12e1864621b9d8436ac","study_id":"6197b3f67c2b5cd3b6d9596a","session_id":"6197b88fd1f4f025cc1c9649","condition":"contingent","relevant_dimensions":["antennae","pattern"],"bee_group":{"antennae":"A","wings":"X","pattern":"S","legs":"X"},"bonus":1.300000000000001},{"rt":591.1000000238419,"stimulus":"bees-with-color/bee-B1DF.svg","response":0,"trial_type":"image-button-response","trial_index":111,"time_elapsed":427343,"internal_node_id":"0.0-4.0-0.52","subject_id":"614dd12e1864621b9d8436ac","study_id":"6197b3f67c2b5cd3b6d9596a","session_id":"6197b88fd1f4f025cc1c9649","condition":"contingent","relevant_dimensions":["antennae","pattern"],"bee_group":{"antennae":"A","wings":"X","pattern":"S","legs":"X"},"action":"harvest","summary":"good-harvest","bonus":1.300000000000001},{"rt":559,"stimulus":"\n                    <p><b>Action: <em>harvest</em></b></p>\n                    <p>This is the bee that you just saw.</p>\n                    <img src=\"bees-with-color/bee-B1DF.svg\" width=\"200\">\n                    <p><span class=\"greenText\"><b>Successful harvest!</b></span><br>Your pay has increased by $0.02. Your bonus pay is now $0.88.</p>\n            ","response":0,"trial_type":"html-button-response","trial_index":112,"time_elapsed":427903,"internal_node_id":"0.0-4.0-1.52","subject_id":"614dd12e1864621b9d8436ac","study_id":"6197b3f67c2b5cd3b6d9596a","session_id":"6197b88fd1f4f025cc1c9649","condition":"contingent","relevant_dimensions":["antennae","pattern"],"bee_group":{"antennae":"A","wings":"X","pattern":"S","legs":"X"},"bonus":1.300000000000001},{"rt":655.1999999880791,"stimulus":"bees-with-color/bee-B2DM.svg","response":0,"trial_type":"image-button-response","trial_index":113,"time_elapsed":428559,"internal_node_id":"0.0-4.0-0.53","subject_id":"614dd12e1864621b9d8436ac","study_id":"6197b3f67c2b5cd3b6d9596a","session_id":"6197b88fd1f4f025cc1c9649","condition":"contingent","relevant_dimensions":["antennae","pattern"],"bee_group":{"antennae":"A","wings":"X","pattern":"S","legs":"X"},"action":"harvest","summary":"good-harvest","bonus":1.300000000000001},{"rt":767,"stimulus":"\n                    <p><b>Action: <em>harvest</em></b></p>\n                    <p>This is the bee that you just saw.</p>\n                    <img src=\"bees-with-color/bee-B2DM.svg\" width=\"200\">\n                    <p><span class=\"greenText\"><b>Successful harvest!</b></span><br>Your pay has increased by $0.02. Your bonus pay is now $0.90.</p>\n            ","response":0,"trial_type":"html-button-response","trial_index":114,"time_elapsed":429327,"internal_node_id":"0.0-4.0-1.53","subject_id":"614dd12e1864621b9d8436ac","study_id":"6197b3f67c2b5cd3b6d9596a","session_id":"6197b88fd1f4f025cc1c9649","condition":"contingent","relevant_dimensions":["antennae","pattern"],"bee_group":{"antennae":"A","wings":"X","pattern":"S","legs":"X"},"bonus":1.300000000000001},{"rt":807.2000000476837,"stimulus":"bees-with-color/bee-A1SF.svg","response":1,"trial_type":"image-button-response","trial_index":115,"time_elapsed":430135,"internal_node_id":"0.0-4.0-0.54","subject_id":"614dd12e1864621b9d8436ac","study_id":"6197b3f67c2b5cd3b6d9596a","session_id":"6197b88fd1f4f025cc1c9649","condition":"contingent","relevant_dimensions":["antennae","pattern"],"bee_group":{"antennae":"A","wings":"X","pattern":"S","legs":"X"},"action":"avoid","summary":"good-avoid","bonus":1.300000000000001},{"rt":534.8999999761581,"stimulus":"\n                    <p><b>Action: <em>avoid</em></b></p>\n                    <p>This is the bee that you just saw.</p>\n                    <img src=\"bees-with-color/bee-A1SF.svg\" width=\"200\">\n                    <p><br>Your bonus pay is unchanged, and remains at $0.90.</p>\n            ","response":0,"trial_type":"html-button-response","trial_index":116,"time_elapsed":430671,"internal_node_id":"0.0-4.0-1.54","subject_id":"614dd12e1864621b9d8436ac","study_id":"6197b3f67c2b5cd3b6d9596a","session_id":"6197b88fd1f4f025cc1c9649","condition":"contingent","relevant_dimensions":["antennae","pattern"],"bee_group":{"antennae":"A","wings":"X","pattern":"S","legs":"X"},"bonus":1.300000000000001},{"rt":671,"stimulus":"bees-with-color/bee-A2SM.svg","response":1,"trial_type":"image-button-response","trial_index":117,"time_elapsed":431343,"internal_node_id":"0.0-4.0-0.55","subject_id":"614dd12e1864621b9d8436ac","study_id":"6197b3f67c2b5cd3b6d9596a","session_id":"6197b88fd1f4f025cc1c9649","condition":"contingent","relevant_dimensions":["antennae","pattern"],"bee_group":{"antennae":"A","wings":"X","pattern":"S","legs":"X"},"action":"avoid","summary":"good-avoid","bonus":1.300000000000001},{"rt":527.1000000238419,"stimulus":"\n                    <p><b>Action: <em>avoid</em></b></p>\n                    <p>This is the bee that you just saw.</p>\n                    <img src=\"bees-with-color/bee-A2SM.svg\" width=\"200\">\n                    <p><br>Your bonus pay is unchanged, and remains at $0.90.</p>\n            ","response":0,"trial_type":"html-button-response","trial_index":118,"time_elapsed":431871,"internal_node_id":"0.0-4.0-1.55","subject_id":"614dd12e1864621b9d8436ac","study_id":"6197b3f67c2b5cd3b6d9596a","session_id":"6197b88fd1f4f025cc1c9649","condition":"contingent","relevant_dimensions":["antennae","pattern"],"bee_group":{"antennae":"A","wings":"X","pattern":"S","legs":"X"},"bonus":1.300000000000001},{"rt":911.1000000238419,"stimulus":"bees-with-color/bee-A2SF.svg","response":1,"trial_type":"image-button-response","trial_index":119,"time_elapsed":432783,"internal_node_id":"0.0-4.0-0.56","subject_id":"614dd12e1864621b9d8436ac","study_id":"6197b3f67c2b5cd3b6d9596a","session_id":"6197b88fd1f4f025cc1c9649","condition":"contingent","relevant_dimensions":["antennae","pattern"],"bee_group":{"antennae":"A","wings":"X","pattern":"S","legs":"X"},"action":"avoid","summary":"good-avoid","bonus":1.300000000000001},{"rt":567,"stimulus":"\n                    <p><b>Action: <em>avoid</em></b></p>\n                    <p>This is the bee that you just saw.</p>\n                    <img src=\"bees-with-color/bee-A2SF.svg\" width=\"200\">\n                    <p><br>Your bonus pay is unchanged, and remains at $0.90.</p>\n            ","response":0,"trial_type":"html-button-response","trial_index":120,"time_elapsed":433351,"internal_node_id":"0.0-4.0-1.56","subject_id":"614dd12e1864621b9d8436ac","study_id":"6197b3f67c2b5cd3b6d9596a","session_id":"6197b88fd1f4f025cc1c9649","condition":"contingent","relevant_dimensions":["antennae","pattern"],"bee_group":{"antennae":"A","wings":"X","pattern":"S","legs":"X"},"bonus":1.300000000000001},{"rt":615.1000000238419,"stimulus":"bees-with-color/bee-A2DF.svg","response":1,"trial_type":"image-button-response","trial_index":121,"time_elapsed":433967,"internal_node_id":"0.0-4.0-0.57","subject_id":"614dd12e1864621b9d8436ac","study_id":"6197b3f67c2b5cd3b6d9596a","session_id":"6197b88fd1f4f025cc1c9649","condition":"contingent","relevant_dimensions":["antennae","pattern"],"bee_group":{"antennae":"A","wings":"X","pattern":"S","legs":"X"},"action":"avoid","summary":"bad-avoid","bonus":1.300000000000001},{"rt":574.8999999761581,"stimulus":"\n                    <p><b>Action: <em>avoid</em></b></p>\n                    <p>This is the bee that you just saw.</p>\n                    <img src=\"bees-with-color/bee-A2DF.svg\" width=\"200\">\n                    <p><br>Your bonus pay is unchanged, and remains at $0.90.</p>\n            ","response":0,"trial_type":"html-button-response","trial_index":122,"time_elapsed":434543,"internal_node_id":"0.0-4.0-1.57","subject_id":"614dd12e1864621b9d8436ac","study_id":"6197b3f67c2b5cd3b6d9596a","session_id":"6197b88fd1f4f025cc1c9649","condition":"contingent","relevant_dimensions":["antennae","pattern"],"bee_group":{"antennae":"A","wings":"X","pattern":"S","legs":"X"},"bonus":1.300000000000001},{"rt":951.1000000238419,"stimulus":"bees-with-color/bee-B2SM.svg","response":0,"trial_type":"image-button-response","trial_index":123,"time_elapsed":435495,"internal_node_id":"0.0-4.0-0.58","subject_id":"614dd12e1864621b9d8436ac","study_id":"6197b3f67c2b5cd3b6d9596a","session_id":"6197b88fd1f4f025cc1c9649","condition":"contingent","relevant_dimensions":["antennae","pattern"],"bee_group":{"antennae":"A","wings":"X","pattern":"S","legs":"X"},"action":"harvest","summary":"good-harvest","bonus":1.300000000000001},{"rt":1215,"stimulus":"\n                    <p><b>Action: <em>harvest</em></b></p>\n                    <p>This is the bee that you just saw.</p>\n                    <img src=\"bees-with-color/bee-B2SM.svg\" width=\"200\">\n                    <p><span class=\"greenText\"><b>Successful harvest!</b></span><br>Your pay has increased by $0.02. Your bonus pay is now $0.92.</p>\n            ","response":0,"trial_type":"html-button-response","trial_index":124,"time_elapsed":436711,"internal_node_id":"0.0-4.0-1.58","subject_id":"614dd12e1864621b9d8436ac","study_id":"6197b3f67c2b5cd3b6d9596a","session_id":"6197b88fd1f4f025cc1c9649","condition":"contingent","relevant_dimensions":["antennae","pattern"],"bee_group":{"antennae":"A","wings":"X","pattern":"S","legs":"X"},"bonus":1.300000000000001},{"rt":815,"stimulus":"bees-with-color/bee-B1SM.svg","response":0,"trial_type":"image-button-response","trial_index":125,"time_elapsed":437527,"internal_node_id":"0.0-4.0-0.59","subject_id":"614dd12e1864621b9d8436ac","study_id":"6197b3f67c2b5cd3b6d9596a","session_id":"6197b88fd1f4f025cc1c9649","condition":"contingent","relevant_dimensions":["antennae","pattern"],"bee_group":{"antennae":"A","wings":"X","pattern":"S","legs":"X"},"action":"harvest","summary":"good-harvest","bonus":1.300000000000001},{"rt":1534.8999999761581,"stimulus":"\n                    <p><b>Action: <em>harvest</em></b></p>\n                    <p>This is the bee that you just saw.</p>\n                    <img src=\"bees-with-color/bee-B1SM.svg\" width=\"200\">\n                    <p><span class=\"greenText\"><b>Successful harvest!</b></span><br>Your pay has increased by $0.02. Your bonus pay is now $0.94.</p>\n            ","response":0,"trial_type":"html-button-response","trial_index":126,"time_elapsed":439063,"internal_node_id":"0.0-4.0-1.59","subject_id":"614dd12e1864621b9d8436ac","study_id":"6197b3f67c2b5cd3b6d9596a","session_id":"6197b88fd1f4f025cc1c9649","condition":"contingent","relevant_dimensions":["antennae","pattern"],"bee_group":{"antennae":"A","wings":"X","pattern":"S","legs":"X"},"bonus":1.300000000000001},{"rt":2151,"stimulus":"bees-with-color/bee-B2SF.svg","response":0,"trial_type":"image-button-response","trial_index":127,"time_elapsed":441215,"internal_node_id":"0.0-4.0-0.60","subject_id":"614dd12e1864621b9d8436ac","study_id":"6197b3f67c2b5cd3b6d9596a","session_id":"6197b88fd1f4f025cc1c9649","condition":"contingent","relevant_dimensions":["antennae","pattern"],"bee_group":{"antennae":"A","wings":"X","pattern":"S","legs":"X"},"action":"harvest","summary":"good-harvest","bonus":1.300000000000001},{"rt":630.8999999761581,"stimulus":"\n                    <p><b>Action: <em>harvest</em></b></p>\n                    <p>This is the bee that you just saw.</p>\n                    <img src=\"bees-with-color/bee-B2SF.svg\" width=\"200\">\n                    <p><span class=\"greenText\"><b>Successful harvest!</b></span><br>Your pay has increased by $0.02. Your bonus pay is now $0.96.</p>\n            ","response":0,"trial_type":"html-button-response","trial_index":128,"time_elapsed":441847,"internal_node_id":"0.0-4.0-1.60","subject_id":"614dd12e1864621b9d8436ac","study_id":"6197b3f67c2b5cd3b6d9596a","session_id":"6197b88fd1f4f025cc1c9649","condition":"contingent","relevant_dimensions":["antennae","pattern"],"bee_group":{"antennae":"A","wings":"X","pattern":"S","legs":"X"},"bonus":1.300000000000001},{"rt":767.6999999880791,"stimulus":"bees-with-color/bee-A1DM.svg","response":1,"trial_type":"image-button-response","trial_index":129,"time_elapsed":442616,"internal_node_id":"0.0-4.0-0.61","subject_id":"614dd12e1864621b9d8436ac","study_id":"6197b3f67c2b5cd3b6d9596a","session_id":"6197b88fd1f4f025cc1c9649","condition":"contingent","relevant_dimensions":["antennae","pattern"],"bee_group":{"antennae":"A","wings":"X","pattern":"S","legs":"X"},"action":"avoid","summary":"bad-avoid","bonus":1.300000000000001},{"rt":614.1000000238419,"stimulus":"\n                    <p><b>Action: <em>avoid</em></b></p>\n                    <p>This is the bee that you just saw.</p>\n                    <img src=\"bees-with-color/bee-A1DM.svg\" width=\"200\">\n                    <p><br>Your bonus pay is unchanged, and remains at $0.96.</p>\n            ","response":0,"trial_type":"html-button-response","trial_index":130,"time_elapsed":443231,"internal_node_id":"0.0-4.0-1.61","subject_id":"614dd12e1864621b9d8436ac","study_id":"6197b3f67c2b5cd3b6d9596a","session_id":"6197b88fd1f4f025cc1c9649","condition":"contingent","relevant_dimensions":["antennae","pattern"],"bee_group":{"antennae":"A","wings":"X","pattern":"S","legs":"X"},"bonus":1.300000000000001},{"rt":735.1000000238419,"stimulus":"bees-with-color/bee-A1SM.svg","response":1,"trial_type":"image-button-response","trial_index":131,"time_elapsed":443967,"internal_node_id":"0.0-4.0-0.62","subject_id":"614dd12e1864621b9d8436ac","study_id":"6197b3f67c2b5cd3b6d9596a","session_id":"6197b88fd1f4f025cc1c9649","condition":"contingent","relevant_dimensions":["antennae","pattern"],"bee_group":{"antennae":"A","wings":"X","pattern":"S","legs":"X"},"action":"avoid","summary":"good-avoid","bonus":1.300000000000001},{"rt":662.9000000357628,"stimulus":"\n                    <p><b>Action: <em>avoid</em></b></p>\n                    <p>This is the bee that you just saw.</p>\n                    <img src=\"bees-with-color/bee-A1SM.svg\" width=\"200\">\n                    <p><br>Your bonus pay is unchanged, and remains at $0.96.</p>\n            ","response":0,"trial_type":"html-button-response","trial_index":132,"time_elapsed":444631,"internal_node_id":"0.0-4.0-1.62","subject_id":"614dd12e1864621b9d8436ac","study_id":"6197b3f67c2b5cd3b6d9596a","session_id":"6197b88fd1f4f025cc1c9649","condition":"contingent","relevant_dimensions":["antennae","pattern"],"bee_group":{"antennae":"A","wings":"X","pattern":"S","legs":"X"},"bonus":1.300000000000001},{"rt":662.8999999761581,"stimulus":"bees-with-color/bee-B1SF.svg","response":0,"trial_type":"image-button-response","trial_index":133,"time_elapsed":445295,"internal_node_id":"0.0-4.0-0.63","subject_id":"614dd12e1864621b9d8436ac","study_id":"6197b3f67c2b5cd3b6d9596a","session_id":"6197b88fd1f4f025cc1c9649","condition":"contingent","relevant_dimensions":["antennae","pattern"],"bee_group":{"antennae":"A","wings":"X","pattern":"S","legs":"X"},"action":"harvest","summary":"good-harvest","bonus":1.300000000000001},{"rt":550.8000000119209,"stimulus":"\n                    <p><b>Action: <em>harvest</em></b></p>\n                    <p>This is the bee that you just saw.</p>\n                    <img src=\"bees-with-color/bee-B1SF.svg\" width=\"200\">\n                    <p><span class=\"greenText\"><b>Successful harvest!</b></span><br>Your pay has increased by $0.02. Your bonus pay is now $0.98.</p>\n            ","response":0,"trial_type":"html-button-response","trial_index":134,"time_elapsed":445847,"internal_node_id":"0.0-4.0-1.63","subject_id":"614dd12e1864621b9d8436ac","study_id":"6197b3f67c2b5cd3b6d9596a","session_id":"6197b88fd1f4f025cc1c9649","condition":"contingent","relevant_dimensions":["antennae","pattern"],"bee_group":{"antennae":"A","wings":"X","pattern":"S","legs":"X"},"bonus":1.300000000000001},{"rt":4626.299999952316,"stimulus":"You have completed the first part of this experiment.<br><br>You will now begin a shorter second part, in which you will receive no feedback.<br>The same rules regarding bonus pay apply.<br><br>Press any key to begin.","response":"arrowright","trial_type":"html-keyboard-response","trial_index":135,"time_elapsed":450475,"internal_node_id":"0.0-5.0","subject_id":"614dd12e1864621b9d8436ac","study_id":"6197b3f67c2b5cd3b6d9596a","session_id":"6197b88fd1f4f025cc1c9649","condition":"contingent","relevant_dimensions":["antennae","pattern"],"bee_group":{"antennae":"A","wings":"X","pattern":"S","legs":"X"},"bonus":1.300000000000001},{"rt":12950.399999976158,"stimulus":"bees-with-color/bee-A1DF.svg","response":1,"trial_type":"image-button-response","trial_index":136,"time_elapsed":463447,"internal_node_id":"0.0-6.0-0.0","subject_id":"614dd12e1864621b9d8436ac","study_id":"6197b3f67c2b5cd3b6d9596a","session_id":"6197b88fd1f4f025cc1c9649","condition":"contingent","relevant_dimensions":["antennae","pattern"],"bee_group":{"antennae":"A","wings":"X","pattern":"S","legs":"X"},"bonus":1.300000000000001},{"rt":3910.2000000476837,"stimulus":"bees-with-color/bee-A2SF.svg","response":1,"trial_type":"image-button-response","trial_index":137,"time_elapsed":467359,"internal_node_id":"0.0-6.0-0.1","subject_id":"614dd12e1864621b9d8436ac","study_id":"6197b3f67c2b5cd3b6d9596a","session_id":"6197b88fd1f4f025cc1c9649","condition":"contingent","relevant_dimensions":["antennae","pattern"],"bee_group":{"antennae":"A","wings":"X","pattern":"S","legs":"X"},"bonus":1.300000000000001},{"rt":806.8000000119209,"stimulus":"bees-with-color/bee-B2SM.svg","response":0,"trial_type":"image-button-response","trial_index":138,"time_elapsed":468167,"internal_node_id":"0.0-6.0-0.2","subject_id":"614dd12e1864621b9d8436ac","study_id":"6197b3f67c2b5cd3b6d9596a","session_id":"6197b88fd1f4f025cc1c9649","condition":"contingent","relevant_dimensions":["antennae","pattern"],"bee_group":{"antennae":"A","wings":"X","pattern":"S","legs":"X"},"bonus":1.300000000000001},{"rt":1846.5,"stimulus":"bees-with-color/bee-B1SF.svg","response":0,"trial_type":"image-button-response","trial_index":139,"time_elapsed":470015,"internal_node_id":"0.0-6.0-0.3","subject_id":"614dd12e1864621b9d8436ac","study_id":"6197b3f67c2b5cd3b6d9596a","session_id":"6197b88fd1f4f025cc1c9649","condition":"contingent","relevant_dimensions":["antennae","pattern"],"bee_group":{"antennae":"A","wings":"X","pattern":"S","legs":"X"},"bonus":1.300000000000001},{"rt":926.6000000238419,"stimulus":"bees-with-color/bee-A2SM.svg","response":1,"trial_type":"image-button-response","trial_index":140,"time_elapsed":470943,"internal_node_id":"0.0-6.0-0.4","subject_id":"614dd12e1864621b9d8436ac","study_id":"6197b3f67c2b5cd3b6d9596a","session_id":"6197b88fd1f4f025cc1c9649","condition":"contingent","relevant_dimensions":["antennae","pattern"],"bee_group":{"antennae":"A","wings":"X","pattern":"S","legs":"X"},"bonus":1.300000000000001},{"rt":998.6000000238419,"stimulus":"bees-with-color/bee-A1DM.svg","response":1,"trial_type":"image-button-response","trial_index":141,"time_elapsed":471943,"internal_node_id":"0.0-6.0-0.5","subject_id":"614dd12e1864621b9d8436ac","study_id":"6197b3f67c2b5cd3b6d9596a","session_id":"6197b88fd1f4f025cc1c9649","condition":"contingent","relevant_dimensions":["antennae","pattern"],"bee_group":{"antennae":"A","wings":"X","pattern":"S","legs":"X"},"bonus":1.300000000000001},{"rt":1398.6000000238419,"stimulus":"bees-with-color/bee-B1SM.svg","response":0,"trial_type":"image-button-response","trial_index":142,"time_elapsed":473343,"internal_node_id":"0.0-6.0-0.6","subject_id":"614dd12e1864621b9d8436ac","study_id":"6197b3f67c2b5cd3b6d9596a","session_id":"6197b88fd1f4f025cc1c9649","condition":"contingent","relevant_dimensions":["antennae","pattern"],"bee_group":{"antennae":"A","wings":"X","pattern":"S","legs":"X"},"bonus":1.300000000000001},{"rt":598.7000000476837,"stimulus":"bees-with-color/bee-B2DF.svg","response":0,"trial_type":"image-button-response","trial_index":143,"time_elapsed":473943,"internal_node_id":"0.0-6.0-0.7","subject_id":"614dd12e1864621b9d8436ac","study_id":"6197b3f67c2b5cd3b6d9596a","session_id":"6197b88fd1f4f025cc1c9649","condition":"contingent","relevant_dimensions":["antennae","pattern"],"bee_group":{"antennae":"A","wings":"X","pattern":"S","legs":"X"},"bonus":1.300000000000001},{"rt":710.3999999761581,"stimulus":"bees-with-color/bee-A1SM.svg","response":1,"trial_type":"image-button-response","trial_index":144,"time_elapsed":474655,"internal_node_id":"0.0-6.0-0.8","subject_id":"614dd12e1864621b9d8436ac","study_id":"6197b3f67c2b5cd3b6d9596a","session_id":"6197b88fd1f4f025cc1c9649","condition":"contingent","relevant_dimensions":["antennae","pattern"],"bee_group":{"antennae":"A","wings":"X","pattern":"S","legs":"X"},"bonus":1.300000000000001},{"rt":631.3000000119209,"stimulus":"bees-with-color/bee-A2DF.svg","response":1,"trial_type":"image-button-response","trial_index":145,"time_elapsed":475288,"internal_node_id":"0.0-6.0-0.9","subject_id":"614dd12e1864621b9d8436ac","study_id":"6197b3f67c2b5cd3b6d9596a","session_id":"6197b88fd1f4f025cc1c9649","condition":"contingent","relevant_dimensions":["antennae","pattern"],"bee_group":{"antennae":"A","wings":"X","pattern":"S","legs":"X"},"bonus":1.300000000000001},{"rt":669.8999999761581,"stimulus":"bees-with-color/bee-A1SF.svg","response":1,"trial_type":"image-button-response","trial_index":146,"time_elapsed":475959,"internal_node_id":"0.0-6.0-0.10","subject_id":"614dd12e1864621b9d8436ac","study_id":"6197b3f67c2b5cd3b6d9596a","session_id":"6197b88fd1f4f025cc1c9649","condition":"contingent","relevant_dimensions":["antennae","pattern"],"bee_group":{"antennae":"A","wings":"X","pattern":"S","legs":"X"},"bonus":1.300000000000001},{"rt":1334.5,"stimulus":"bees-with-color/bee-A2DM.svg","response":1,"trial_type":"image-button-response","trial_index":147,"time_elapsed":477295,"internal_node_id":"0.0-6.0-0.11","subject_id":"614dd12e1864621b9d8436ac","study_id":"6197b3f67c2b5cd3b6d9596a","session_id":"6197b88fd1f4f025cc1c9649","condition":"contingent","relevant_dimensions":["antennae","pattern"],"bee_group":{"antennae":"A","wings":"X","pattern":"S","legs":"X"},"bonus":1.300000000000001},{"rt":758.6000000238419,"stimulus":"bees-with-color/bee-B1DM.svg","response":0,"trial_type":"image-button-response","trial_index":148,"time_elapsed":478055,"internal_node_id":"0.0-6.0-0.12","subject_id":"614dd12e1864621b9d8436ac","study_id":"6197b3f67c2b5cd3b6d9596a","session_id":"6197b88fd1f4f025cc1c9649","condition":"contingent","relevant_dimensions":["antennae","pattern"],"bee_group":{"antennae":"A","wings":"X","pattern":"S","legs":"X"},"bonus":1.300000000000001},{"rt":558.5,"stimulus":"bees-with-color/bee-B2DM.svg","response":0,"trial_type":"image-button-response","trial_index":149,"time_elapsed":478615,"internal_node_id":"0.0-6.0-0.13","subject_id":"614dd12e1864621b9d8436ac","study_id":"6197b3f67c2b5cd3b6d9596a","session_id":"6197b88fd1f4f025cc1c9649","condition":"contingent","relevant_dimensions":["antennae","pattern"],"bee_group":{"antennae":"A","wings":"X","pattern":"S","legs":"X"},"bonus":1.300000000000001},{"rt":1574.5,"stimulus":"bees-with-color/bee-B2SF.svg","response":0,"trial_type":"image-button-response","trial_index":150,"time_elapsed":480191,"internal_node_id":"0.0-6.0-0.14","subject_id":"614dd12e1864621b9d8436ac","study_id":"6197b3f67c2b5cd3b6d9596a","session_id":"6197b88fd1f4f025cc1c9649","condition":"contingent","relevant_dimensions":["antennae","pattern"],"bee_group":{"antennae":"A","wings":"X","pattern":"S","legs":"X"},"bonus":1.300000000000001},{"rt":486.4000000357628,"stimulus":"bees-with-color/bee-B1DF.svg","response":0,"trial_type":"image-button-response","trial_index":151,"time_elapsed":480679,"internal_node_id":"0.0-6.0-0.15","subject_id":"614dd12e1864621b9d8436ac","study_id":"6197b3f67c2b5cd3b6d9596a","session_id":"6197b88fd1f4f025cc1c9649","condition":"contingent","relevant_dimensions":["antennae","pattern"],"bee_group":{"antennae":"A","wings":"X","pattern":"S","legs":"X"},"bonus":1.300000000000001},{"rt":526.8000000119209,"stimulus":"bees-with-color/bee-B2DM.svg","response":0,"trial_type":"image-button-response","trial_index":152,"time_elapsed":481207,"internal_node_id":"0.0-6.0-0.16","subject_id":"614dd12e1864621b9d8436ac","study_id":"6197b3f67c2b5cd3b6d9596a","session_id":"6197b88fd1f4f025cc1c9649","condition":"contingent","relevant_dimensions":["antennae","pattern"],"bee_group":{"antennae":"A","wings":"X","pattern":"S","legs":"X"},"bonus":1.300000000000001},{"rt":686.6000000238419,"stimulus":"bees-with-color/bee-A2DM.svg","response":1,"trial_type":"image-button-response","trial_index":153,"time_elapsed":481895,"internal_node_id":"0.0-6.0-0.17","subject_id":"614dd12e1864621b9d8436ac","study_id":"6197b3f67c2b5cd3b6d9596a","session_id":"6197b88fd1f4f025cc1c9649","condition":"contingent","relevant_dimensions":["antennae","pattern"],"bee_group":{"antennae":"A","wings":"X","pattern":"S","legs":"X"},"bonus":1.300000000000001},{"rt":630.8000000119209,"stimulus":"bees-with-color/bee-B2SF.svg","response":0,"trial_type":"image-button-response","trial_index":154,"time_elapsed":482527,"internal_node_id":"0.0-6.0-0.18","subject_id":"614dd12e1864621b9d8436ac","study_id":"6197b3f67c2b5cd3b6d9596a","session_id":"6197b88fd1f4f025cc1c9649","condition":"contingent","relevant_dimensions":["antennae","pattern"],"bee_group":{"antennae":"A","wings":"X","pattern":"S","legs":"X"},"bonus":1.300000000000001},{"rt":734.8000000119209,"stimulus":"bees-with-color/bee-A1DF.svg","response":1,"trial_type":"image-button-response","trial_index":155,"time_elapsed":483263,"internal_node_id":"0.0-6.0-0.19","subject_id":"614dd12e1864621b9d8436ac","study_id":"6197b3f67c2b5cd3b6d9596a","session_id":"6197b88fd1f4f025cc1c9649","condition":"contingent","relevant_dimensions":["antennae","pattern"],"bee_group":{"antennae":"A","wings":"X","pattern":"S","legs":"X"},"bonus":1.300000000000001},{"rt":614.7000000476837,"stimulus":"bees-with-color/bee-B1DF.svg","response":0,"trial_type":"image-button-response","trial_index":156,"time_elapsed":483879,"internal_node_id":"0.0-6.0-0.20","subject_id":"614dd12e1864621b9d8436ac","study_id":"6197b3f67c2b5cd3b6d9596a","session_id":"6197b88fd1f4f025cc1c9649","condition":"contingent","relevant_dimensions":["antennae","pattern"],"bee_group":{"antennae":"A","wings":"X","pattern":"S","legs":"X"},"bonus":1.300000000000001},{"rt":662.6999999880791,"stimulus":"bees-with-color/bee-A1DM.svg","response":1,"trial_type":"image-button-response","trial_index":157,"time_elapsed":484543,"internal_node_id":"0.0-6.0-0.21","subject_id":"614dd12e1864621b9d8436ac","study_id":"6197b3f67c2b5cd3b6d9596a","session_id":"6197b88fd1f4f025cc1c9649","condition":"contingent","relevant_dimensions":["antennae","pattern"],"bee_group":{"antennae":"A","wings":"X","pattern":"S","legs":"X"},"bonus":1.300000000000001},{"rt":830.9000000357628,"stimulus":"bees-with-color/bee-A1SF.svg","response":1,"trial_type":"image-button-response","trial_index":158,"time_elapsed":485375,"internal_node_id":"0.0-6.0-0.22","subject_id":"614dd12e1864621b9d8436ac","study_id":"6197b3f67c2b5cd3b6d9596a","session_id":"6197b88fd1f4f025cc1c9649","condition":"contingent","relevant_dimensions":["antennae","pattern"],"bee_group":{"antennae":"A","wings":"X","pattern":"S","legs":"X"},"bonus":1.300000000000001},{"rt":598.6000000238419,"stimulus":"bees-with-color/bee-A1SM.svg","response":1,"trial_type":"image-button-response","trial_index":159,"time_elapsed":485975,"internal_node_id":"0.0-6.0-0.23","subject_id":"614dd12e1864621b9d8436ac","study_id":"6197b3f67c2b5cd3b6d9596a","session_id":"6197b88fd1f4f025cc1c9649","condition":"contingent","relevant_dimensions":["antennae","pattern"],"bee_group":{"antennae":"A","wings":"X","pattern":"S","legs":"X"},"bonus":1.300000000000001},{"rt":758.7000000476837,"stimulus":"bees-with-color/bee-B1DM.svg","response":0,"trial_type":"image-button-response","trial_index":160,"time_elapsed":486735,"internal_node_id":"0.0-6.0-0.24","subject_id":"614dd12e1864621b9d8436ac","study_id":"6197b3f67c2b5cd3b6d9596a","session_id":"6197b88fd1f4f025cc1c9649","condition":"contingent","relevant_dimensions":["antennae","pattern"],"bee_group":{"antennae":"A","wings":"X","pattern":"S","legs":"X"},"bonus":1.300000000000001},{"rt":662.8000000119209,"stimulus":"bees-with-color/bee-A2SM.svg","response":1,"trial_type":"image-button-response","trial_index":161,"time_elapsed":487399,"internal_node_id":"0.0-6.0-0.25","subject_id":"614dd12e1864621b9d8436ac","study_id":"6197b3f67c2b5cd3b6d9596a","session_id":"6197b88fd1f4f025cc1c9649","condition":"contingent","relevant_dimensions":["antennae","pattern"],"bee_group":{"antennae":"A","wings":"X","pattern":"S","legs":"X"},"bonus":1.300000000000001},{"rt":503,"stimulus":"bees-with-color/bee-B1SM.svg","response":0,"trial_type":"image-button-response","trial_index":162,"time_elapsed":487903,"internal_node_id":"0.0-6.0-0.26","subject_id":"614dd12e1864621b9d8436ac","study_id":"6197b3f67c2b5cd3b6d9596a","session_id":"6197b88fd1f4f025cc1c9649","condition":"contingent","relevant_dimensions":["antennae","pattern"],"bee_group":{"antennae":"A","wings":"X","pattern":"S","legs":"X"},"bonus":1.300000000000001},{"rt":711,"stimulus":"bees-with-color/bee-A2SF.svg","response":1,"trial_type":"image-button-response","trial_index":163,"time_elapsed":488615,"internal_node_id":"0.0-6.0-0.27","subject_id":"614dd12e1864621b9d8436ac","study_id":"6197b3f67c2b5cd3b6d9596a","session_id":"6197b88fd1f4f025cc1c9649","condition":"contingent","relevant_dimensions":["antennae","pattern"],"bee_group":{"antennae":"A","wings":"X","pattern":"S","legs":"X"},"bonus":1.300000000000001},{"rt":718.8999999761581,"stimulus":"bees-with-color/bee-A2DF.svg","response":1,"trial_type":"image-button-response","trial_index":164,"time