[{"success":true,"trial_type":"fullscreen","trial_index":0,"time_elapsed":41085,"internal_node_id":"0.0-0.0","subject_id":"60f69d6499cccd3fbc5de198","study_id":"6197b3f67c2b5cd3b6d9596a","session_id":"619be32619886dee245cca72","condition":"full-information","relevant_dimensions":["wings","pattern"],"bee_group":{"antennae":"X","wings":"2","pattern":"D","legs":"X"},"bonus":1.3800000000000008},{"success":true,"timeout":false,"failed_images":[],"failed_audio":[],"failed_video":[],"trial_type":"preload","trial_index":1,"time_elapsed":42993,"internal_node_id":"0.0-1.0","subject_id":"60f69d6499cccd3fbc5de198","study_id":"6197b3f67c2b5cd3b6d9596a","session_id":"619be32619886dee245cca72","condition":"full-information","relevant_dimensions":["wings","pattern"],"bee_group":{"antennae":"X","wings":"2","pattern":"D","legs":"X"},"bonus":1.3800000000000008},{"rt":4119.099999904633,"stimulus":"Welcome! Press any key to begin.","response":"arrowright","trial_type":"html-keyboard-response","trial_index":2,"time_elapsed":47113,"internal_node_id":"0.0-2.0","subject_id":"60f69d6499cccd3fbc5de198","study_id":"6197b3f67c2b5cd3b6d9596a","session_id":"619be32619886dee245cca72","condition":"full-information","relevant_dimensions":["wings","pattern"],"bee_group":{"antennae":"X","wings":"2","pattern":"D","legs":"X"},"bonus":1.3800000000000008},{"view_history":[{"page_index":0,"viewing_time":4791.600000023842},{"page_index":1,"viewing_time":25825.600000023842},{"page_index":2,"viewing_time":14718.199999928474},{"page_index":3,"viewing_time":30296.100000023842},{"page_index":4,"viewing_time":13017},{"page_index":5,"viewing_time":14479.100000023842},{"page_index":6,"viewing_time":14719.699999928474},{"page_index":7,"viewing_time":11913.300000071526},{"page_index":8,"viewing_time":6742.699999928474},{"page_index":9,"viewing_time":7304.600000023842},{"page_index":10,"viewing_time":4895.600000023842},{"page_index":11,"viewing_time":11136.899999976158},{"page_index":12,"viewing_time":40087},{"page_index":13,"viewing_time":22096},{"page_index":14,"viewing_time":3343.8000000715256}],"rt":225367.5,"trial_type":"instructions","trial_index":3,"time_elapsed":272481,"internal_node_id":"0.0-3.0-0.0","subject_id":"60f69d6499cccd3fbc5de198","study_id":"6197b3f67c2b5cd3b6d9596a","session_id":"619be32619886dee245cca72","condition":"full-information","relevant_dimensions":["wings","pattern"],"bee_group":{"antennae":"X","wings":"2","pattern":"D","legs":"X"},"bonus":1.3800000000000008},{"rt":20821.299999952316,"response":{"Q0":["Two or six legs","Stripes or spots on body","Single or double wings","Antennae or no antennae"]},"question_order":[0],"trial_type":"survey-multi-select","trial_index":4,"time_elapsed":293306,"internal_node_id":"0.0-3.0-1.0","subject_id":"60f69d6499cccd3fbc5de198","study_id":"6197b3f67c2b5cd3b6d9596a","session_id":"619be32619886dee245cca72","condition":"full-information","relevant_dimensions":["wings","pattern"],"bee_group":{"antennae":"X","wings":"2","pattern":"D","legs":"X"},"correct":true,"bonus":1.3800000000000008},{"rt":37731.60000002384,"response":{"Q1":"No.","Q2":"Based on the four features of the bee.","Q3":"You learn if it was friendly or dangerous, but do not alter your bonus."},"question_order":[0,1,2],"trial_type":"survey-multi-choice","trial_index":5,"time_elapsed":331042,"internal_node_id":"0.0-3.0-2.0","subject_id":"60f69d6499cccd3fbc5de198","study_id":"6197b3f67c2b5cd3b6d9596a","session_id":"619be32619886dee245cca72","condition":"full-information","relevant_dimensions":["wings","pattern"],"bee_group":{"antennae":"X","wings":"2","pattern":"D","legs":"X"},"correct":true,"bonus":1.3800000000000008},{"rt":66931.29999995232,"stimulus":"<p>Congrats, you got everything right<br>When you're ready, click the button below to continue to the experiment.</p>","response":0,"trial_type":"html-button-response","trial_index":6,"time_elapsed":397977,"internal_node_id":"0.0-3.0-3.0","subject_id":"60f69d6499cccd3fbc5de198","study_id":"6197b3f67c2b5cd3b6d9596a","session_id":"619be32619886dee245cca72","condition":"full-information","relevant_dimensions":["wings","pattern"],"bee_group":{"antennae":"X","wings":"2","pattern":"D","legs":"X"},"bonus":1.3800000000000008},{"rt":28830.900000095367,"stimulus":"bees-with-color/bee-A1DF.svg","response":0,"trial_type":"image-button-response","trial_index":7,"time_elapsed":426810,"internal_node_id":"0.0-4.0-0.0","subject_id":"60f69d6499cccd3fbc5de198","study_id":"6197b3f67c2b5cd3b6d9596a","session_id":"619be32619886dee245cca72","condition":"full-information","relevant_dimensions":["wings","pattern"],"bee_group":{"antennae":"X","wings":"2","pattern":"D","legs":"X"},"action":"harvest","summary":"good-harvest","bonus":1.3800000000000008},{"rt":12573.199999928474,"stimulus":"\n                    <p><b>Action: <em>harvest</em></b></p>\n                    <p>This is the bee that you just saw.</p>\n                    <img src=\"bees-with-color/bee-A1DF.svg\" width=\"200\">\n                    <p><span class=\"greenText\"><b>Successful harvest!</b></span><br>Your pay has increased by $0.02. Your bonus pay is now $0.56.</p>\n            ","response":0,"trial_type":"html-button-response","trial_index":8,"time_elapsed":439385,"internal_node_id":"0.0-4.0-1.0","subject_id":"60f69d6499cccd3fbc5de198","study_id":"6197b3f67c2b5cd3b6d9596a","session_id":"619be32619886dee245cca72","condition":"full-information","relevant_dimensions":["wings","pattern"],"bee_group":{"antennae":"X","wings":"2","pattern":"D","legs":"X"},"bonus":1.3800000000000008},{"rt":14126.399999976158,"stimulus":"bees-with-color/bee-A1SM.svg","response":1,"trial_type":"image-button-response","trial_index":9,"time_elapsed":453513,"internal_node_id":"0.0-4.0-0.1","subject_id":"60f69d6499cccd3fbc5de198","study_id":"6197b3f67c2b5cd3b6d9596a","session_id":"619be32619886dee245cca72","condition":"full-information","relevant_dimensions":["wings","pattern"],"bee_group":{"antennae":"X","wings":"2","pattern":"D","legs":"X"},"action":"avoid","summary":"bad-avoid","bonus":1.3800000000000008},{"rt":22958.5,"stimulus":"\n                    <p><b>Action: <em>avoid</em></b></p>\n                    <p>This is the bee that you just saw.</p>\n                    <img src=\"bees-with-color/bee-A1SM.svg\" width=\"200\">\n                    <p><span class=\"redText\">Bad choice,</span> the bee was friendly.<br>Your bonus pay is unchanged, and remains at $0.56.</p>\n            ","response":0,"trial_type":"html-button-response","trial_index":10,"time_elapsed":476474,"internal_node_id":"0.0-4.0-1.1","subject_id":"60f69d6499cccd3fbc5de198","study_id":"6197b3f67c2b5cd3b6d9596a","session_id":"619be32619886dee245cca72","condition":"full-information","relevant_dimensions":["wings","pattern"],"bee_group":{"antennae":"X","wings":"2","pattern":"D","legs":"X"},"bonus":1.3800000000000008},{"rt":3686.1999999284744,"stimulus":"bees-with-color/bee-B1SM.svg","response":0,"trial_type":"image-button-response","trial_index":11,"time_elapsed":480162,"internal_node_id":"0.0-4.0-0.2","subject_id":"60f69d6499cccd3fbc5de198","study_id":"6197b3f67c2b5cd3b6d9596a","session_id":"619be32619886dee245cca72","condition":"full-information","relevant_dimensions":["wings","pattern"],"bee_group":{"antennae":"X","wings":"2","pattern":"D","legs":"X"},"action":"harvest","summary":"good-harvest","bonus":1.3800000000000008},{"rt":18174.400000095367,"stimulus":"\n                    <p><b>Action: <em>harvest</em></b></p>\n                    <p>This is the bee that you just saw.</p>\n                    <img src=\"bees-with-color/bee-B1SM.svg\" width=\"200\">\n                    <p><span class=\"greenText\"><b>Successful harvest!</b></span><br>Your pay has increased by $0.02. Your bonus pay is now $0.58.</p>\n            ","response":0,"trial_type":"html-button-response","trial_index":12,"time_elapsed":498337,"internal_node_id":"0.0-4.0-1.2","subject_id":"60f69d6499cccd3fbc5de198","study_id":"6197b3f67c2b5cd3b6d9596a","session_id":"619be32619886dee245cca72","condition":"full-information","relevant_dimensions":["wings","pattern"],"bee_group":{"antennae":"X","wings":"2","pattern":"D","legs":"X"},"bonus":1.3800000000000008},{"rt":10342.800000071526,"stimulus":"bees-with-color/bee-B1DM.svg","response":0,"trial_type":"image-button-response","trial_index":13,"time_elapsed":508682,"internal_node_id":"0.0-4.0-0.3","subject_id":"60f69d6499cccd3fbc5de198","study_id":"6197b3f67c2b5cd3b6d9596a","session_id":"619be32619886dee245cca72","condition":"full-information","relevant_dimensions":["wings","pattern"],"bee_group":{"antennae":"X","wings":"2","pattern":"D","legs":"X"},"action":"harvest","summary":"good-harvest","bonus":1.3800000000000008},{"rt":2447.1999999284744,"stimulus":"\n                    <p><b>Action: <em>harvest</em></b></p>\n                    <p>This is the bee that you just saw.</p>\n                    <img src=\"bees-with-color/bee-B1DM.svg\" width=\"200\">\n                    <p><span class=\"greenText\"><b>Successful harvest!</b></span><br>Your pay has increased by $0.02. Your bonus pay is now $0.60.</p>\n            ","response":0,"trial_type":"html-button-response","trial_index":14,"time_elapsed":511130,"internal_node_id":"0.0-4.0-1.3","subject_id":"60f69d6499cccd3fbc5de198","study_id":"6197b3f67c2b5cd3b6d9596a","session_id":"619be32619886dee245cca72","condition":"full-information","relevant_dimensions":["wings","pattern"],"bee_group":{"antennae":"X","wings":"2","pattern":"D","legs":"X"},"bonus":1.3800000000000008},{"rt":3614.5,"stimulus":"bees-with-color/bee-B2SF.svg","response":1,"trial_type":"image-button-response","trial_index":15,"time_elapsed":514746,"internal_node_id":"0.0-4.0-0.4","subject_id":"60f69d6499cccd3fbc5de198","study_id":"6197b3f67c2b5cd3b6d9596a","session_id":"619be32619886dee245cca72","condition":"full-information","relevant_dimensions":["wings","pattern"],"bee_group":{"antennae":"X","wings":"2","pattern":"D","legs":"X"},"action":"avoid","summary":"bad-avoid","bonus":1.3800000000000008},{"rt":33046.700000047684,"stimulus":"\n                    <p><b>Action: <em>avoid</em></b></p>\n                    <p>This is the bee that you just saw.</p>\n                    <img src=\"bees-with-color/bee-B2SF.svg\" width=\"200\">\n                    <p><span class=\"redText\">Bad choice,</span> the bee was friendly.<br>Your bonus pay is unchanged, and remains at $0.60.</p>\n            ","response":0,"trial_type":"html-button-response","trial_index":16,"time_elapsed":547793,"internal_node_id":"0.0-4.0-1.4","subject_id":"60f69d6499cccd3fbc5de198","study_id":"6197b3f67c2b5cd3b6d9596a","session_id":"619be32619886dee245cca72","condition":"full-information","relevant_dimensions":["wings","pattern"],"bee_group":{"antennae":"X","wings":"2","pattern":"D","legs":"X"},"bonus":1.3800000000000008},{"rt":3070.7000000476837,"stimulus":"bees-with-color/bee-B2DF.svg","response":1,"trial_type":"image-button-response","trial_index":17,"time_elapsed":550865,"internal_node_id":"0.0-4.0-0.5","subject_id":"60f69d6499cccd3fbc5de198","study_id":"6197b3f67c2b5cd3b6d9596a","session_id":"619be32619886dee245cca72","condition":"full-information","relevant_dimensions":["wings","pattern"],"bee_group":{"antennae":"X","wings":"2","pattern":"D","legs":"X"},"action":"avoid","summary":"good-avoid","bonus":1.3800000000000008},{"rt":22887,"stimulus":"\n                    <p><b>Action: <em>avoid</em></b></p>\n                    <p>This is the bee that you just saw.</p>\n                    <img src=\"bees-with-color/bee-B2DF.svg\" width=\"200\">\n                    <p><span class=\"greenText\">Good choice!</span>  This bee would have stung you.<br>Your bonus pay is unchanged, and remains at $0.60.</p>\n            ","response":0,"trial_type":"html-button-response","trial_index":18,"time_elapsed":573753,"internal_node_id":"0.0-4.0-1.5","subject_id":"60f69d6499cccd3fbc5de198","study_id":"6197b3f67c2b5cd3b6d9596a","session_id":"619be32619886dee245cca72","condition":"full-information","relevant_dimensions":["wings","pattern"],"bee_group":{"antennae":"X","wings":"2","pattern":"D","legs":"X"},"bonus":1.3800000000000008},{"rt":1862.2000000476837,"stimulus":"bees-with-color/bee-B1DF.svg","response":0,"trial_type":"image-button-response","trial_index":19,"time_elapsed":575617,"internal_node_id":"0.0-4.0-0.6","subject_id":"60f69d6499cccd3fbc5de198","study_id":"6197b3f67c2b5cd3b6d9596a","session_id":"619be32619886dee245cca72","condition":"full-information","relevant_dimensions":["wings","pattern"],"bee_group":{"antennae":"X","wings":"2","pattern":"D","legs":"X"},"action":"harvest","summary":"good-harvest","bonus":1.3800000000000008},{"rt":1806.9000000953674,"stimulus":"\n                    <p><b>Action: <em>harvest</em></b></p>\n                    <p>This is the bee that you just saw.</p>\n                    <img src=\"bees-with-color/bee-B1DF.svg\" width=\"200\">\n                    <p><span class=\"greenText\"><b>Successful harvest!</b></span><br>Your pay has increased by $0.02. Your bonus pay is now $0.62.</p>\n            ","response":0,"trial_type":"html-button-response","trial_index":20,"time_elapsed":577426,"internal_node_id":"0.0-4.0-1.6","subject_id":"60f69d6499cccd3fbc5de198","study_id":"6197b3f67c2b5cd3b6d9596a","session_id":"619be32619886dee245cca72","condition":"full-information","relevant_dimensions":["wings","pattern"],"bee_group":{"antennae":"X","wings":"2","pattern":"D","legs":"X"},"bonus":1.3800000000000008},{"rt":2382.7000000476837,"stimulus":"bees-with-color/bee-A2DM.svg","response":0,"trial_type":"image-button-response","trial_index":21,"time_elapsed":579810,"internal_node_id":"0.0-4.0-0.7","subject_id":"60f69d6499cccd3fbc5de198","study_id":"6197b3f67c2b5cd3b6d9596a","session_id":"619be32619886dee245cca72","condition":"full-information","relevant_dimensions":["wings","pattern"],"bee_group":{"antennae":"X","wings":"2","pattern":"D","legs":"X"},"action":"harvest","summary":"bad-harvest","bonus":1.3800000000000008},{"rt":30958.700000047684,"stimulus":"\n                    <p><b>Action: <em>harvest</em></b></p>\n                    <p>This is the bee that you just saw.</p>\n                    <img src=\"bees-with-color/bee-A2DM.svg\" width=\"200\">\n                    <p><span class=\"redText\">Bad choice, the bee was angry.</span><br><b>You have been stung!</b><br>Your pay has been decreased by $0.10. Your bonus pay is now $0.52.</p>\n            ","response":0,"trial_type":"html-button-response","trial_index":22,"time_elapsed":610770,"internal_node_id":"0.0-4.0-1.7","subject_id":"60f69d6499cccd3fbc5de198","study_id":"6197b3f67c2b5cd3b6d9596a","session_id":"619be32619886dee245cca72","condition":"full-information","relevant_dimensions":["wings","pattern"],"bee_group":{"antennae":"X","wings":"2","pattern":"D","legs":"X"},"bonus":1.3800000000000008},{"rt":1518.8999999761581,"stimulus":"bees-with-color/bee-A1DM.svg","response":0,"trial_type":"image-button-response","trial_index":23,"time_elapsed":612290,"internal_node_id":"0.0-4.0-0.8","subject_id":"60f69d6499cccd3fbc5de198","study_id":"6197b3f67c2b5cd3b6d9596a","session_id":"619be32619886dee245cca72","condition":"full-information","relevant_dimensions":["wings","pattern"],"bee_group":{"antennae":"X","wings":"2","pattern":"D","legs":"X"},"action":"harvest","summary":"good-harvest","bonus":1.3800000000000008},{"rt":846.2999999523163,"stimulus":"\n                    <p><b>Action: <em>harvest</em></b></p>\n                    <p>This is the bee that you just saw.</p>\n                    <img src=\"bees-with-color/bee-A1DM.svg\" width=\"200\">\n                    <p><span class=\"greenText\"><b>Successful harvest!</b></span><br>Your pay has increased by $0.02. Your bonus pay is now $0.54.</p>\n            ","response":0,"trial_type":"html-button-response","trial_index":24,"time_elapsed":613138,"internal_node_id":"0.0-4.0-1.8","subject_id":"60f69d6499cccd3fbc5de198","study_id":"6197b3f67c2b5cd3b6d9596a","session_id":"619be32619886dee245cca72","condition":"full-information","relevant_dimensions":["wings","pattern"],"bee_group":{"antennae":"X","wings":"2","pattern":"D","legs":"X"},"bonus":1.3800000000000008},{"rt":1574.3999999761581,"stimulus":"bees-with-color/bee-A2DF.svg","response":1,"trial_type":"image-button-response","trial_index":25,"time_elapsed":614714,"internal_node_id":"0.0-4.0-0.9","subject_id":"60f69d6499cccd3fbc5de198","study_id":"6197b3f67c2b5cd3b6d9596a","session_id":"619be32619886dee245cca72","condition":"full-information","relevant_dimensions":["wings","pattern"],"bee_group":{"antennae":"X","wings":"2","pattern":"D","legs":"X"},"action":"avoid","summary":"good-avoid","bonus":1.3800000000000008},{"rt":1806.8000000715256,"stimulus":"\n                    <p><b>Action: <em>avoid</em></b></p>\n                    <p>This is the bee that you just saw.</p>\n                    <img src=\"bees-with-color/bee-A2DF.svg\" width=\"200\">\n                    <p><span class=\"greenText\">Good choice!</span>  This bee would have stung you.<br>Your bonus pay is unchanged, and remains at $0.54.</p>\n            ","response":0,"trial_type":"html-button-response","trial_index":26,"time_elapsed":616522,"internal_node_id":"0.0-4.0-1.9","subject_id":"60f69d6499cccd3fbc5de198","study_id":"6197b3f67c2b5cd3b6d9596a","session_id":"619be32619886dee245cca72","condition":"full-information","relevant_dimensions":["wings","pattern"],"bee_group":{"antennae":"X","wings":"2","pattern":"D","legs":"X"},"bonus":1.3800000000000008},{"rt":2358.7000000476837,"stimulus":"bees-with-color/bee-A2SF.svg","response":0,"trial_type":"image-button-response","trial_index":27,"time_elapsed":618882,"internal_node_id":"0.0-4.0-0.10","subject_id":"60f69d6499cccd3fbc5de198","study_id":"6197b3f67c2b5cd3b6d9596a","session_id":"619be32619886dee245cca72","condition":"full-information","relevant_dimensions":["wings","pattern"],"bee_group":{"antennae":"X","wings":"2","pattern":"D","legs":"X"},"action":"harvest","summary":"good-harvest","bonus":1.3800000000000008},{"rt":591.1000000238419,"stimulus":"\n                    <p><b>Action: <em>harvest</em></b></p>\n                    <p>This is the bee that you just saw.</p>\n                    <img src=\"bees-with-color/bee-A2SF.svg\" width=\"200\">\n                    <p><span class=\"greenText\"><b>Successful harvest!</b></span><br>Your pay has increased by $0.02. Your bonus pay is now $0.56.</p>\n            ","response":0,"trial_type":"html-button-response","trial_index":28,"time_elapsed":619474,"internal_node_id":"0.0-4.0-1.10","subject_id":"60f69d6499cccd3fbc5de198","study_id":"6197b3f67c2b5cd3b6d9596a","session_id":"619be32619886dee245cca72","condition":"full-information","relevant_dimensions":["wings","pattern"],"bee_group":{"antennae":"X","wings":"2","pattern":"D","legs":"X"},"bonus":1.3800000000000008},{"rt":941.8999999761581,"stimulus":"bees-with-color/bee-B1SF.svg","response":0,"trial_type":"image-button-response","trial_index":29,"time_elapsed":620418,"internal_node_id":"0.0-4.0-0.11","subject_id":"60f69d6499cccd3fbc5de198","study_id":"6197b3f67c2b5cd3b6d9596a","session_id":"619be32619886dee245cca72","condition":"full-information","relevant_dimensions":["wings","pattern"],"bee_group":{"antennae":"X","wings":"2","pattern":"D","legs":"X"},"action":"harvest","summary":"good-harvest","bonus":1.3800000000000008},{"rt":397.59999990463257,"stimulus":"\n                    <p><b>Action: <em>harvest</em></b></p>\n                    <p>This is the bee that you just saw.</p>\n                    <img src=\"bees-with-color/bee-B1SF.svg\" width=\"200\">\n                    <p><span class=\"greenText\"><b>Successful harvest!</b></span><br>Your pay has increased by $0.02. Your bonus pay is now $0.58.</p>\n            ","response":0,"trial_type":"html-button-response","trial_index":30,"time_elapsed":620818,"internal_node_id":"0.0-4.0-1.11","subject_id":"60f69d6499cccd3fbc5de198","study_id":"6197b3f67c2b5cd3b6d9596a","session_id":"619be32619886dee245cca72","condition":"full-information","relevant_dimensions":["wings","pattern"],"bee_group":{"antennae":"X","wings":"2","pattern":"D","legs":"X"},"bonus":1.3800000000000008},{"rt":1143.1999999284744,"stimulus":"bees-with-color/bee-A1SF.svg","response":0,"trial_type":"image-button-response","trial_index":31,"time_elapsed":621962,"internal_node_id":"0.0-4.0-0.12","subject_id":"60f69d6499cccd3fbc5de198","study_id":"6197b3f67c2b5cd3b6d9596a","session_id":"619be32619886dee245cca72","condition":"full-information","relevant_dimensions":["wings","pattern"],"bee_group":{"antennae":"X","wings":"2","pattern":"D","legs":"X"},"action":"harvest","summary":"good-harvest","bonus":1.3800000000000008},{"rt":415.10000002384186,"stimulus":"\n                    <p><b>Action: <em>harvest</em></b></p>\n                    <p>This is the bee that you just saw.</p>\n                    <img src=\"bees-with-color/bee-A1SF.svg\" width=\"200\">\n                    <p><span class=\"greenText\"><b>Successful harvest!</b></span><br>Your pay has increased by $0.02. Your bonus pay is now $0.60.</p>\n            ","response":0,"trial_type":"html-button-response","trial_index":32,"time_elapsed":622378,"internal_node_id":"0.0-4.0-1.12","subject_id":"60f69d6499cccd3fbc5de198","study_id":"6197b3f67c2b5cd3b6d9596a","session_id":"619be32619886dee245cca72","condition":"full-information","relevant_dimensions":["wings","pattern"],"bee_group":{"antennae":"X","wings":"2","pattern":"D","legs":"X"},"bonus":1.3800000000000008},{"rt":1519.2999999523163,"stimulus":"bees-with-color/bee-B2SM.svg","response":0,"trial_type":"image-button-response","trial_index":33,"time_elapsed":623898,"internal_node_id":"0.0-4.0-0.13","subject_id":"60f69d6499cccd3fbc5de198","study_id":"6197b3f67c2b5cd3b6d9596a","session_id":"619be32619886dee245cca72","condition":"full-information","relevant_dimensions":["wings","pattern"],"bee_group":{"antennae":"X","wings":"2","pattern":"D","legs":"X"},"action":"harvest","summary":"good-harvest","bonus":1.3800000000000008},{"rt":398.7000000476837,"stimulus":"\n                    <p><b>Action: <em>harvest</em></b></p>\n                    <p>This is the bee that you just saw.</p>\n                    <img src=\"bees-with-color/bee-B2SM.svg\" width=\"200\">\n                    <p><span class=\"greenText\"><b>Successful harvest!</b></span><br>Your pay has increased by $0.02. Your bonus pay is now $0.62.</p>\n            ","response":0,"trial_type":"html-button-response","trial_index":34,"time_elapsed":624298,"internal_node_id":"0.0-4.0-1.13","subject_id":"60f69d6499cccd3fbc5de198","study_id":"6197b3f67c2b5cd3b6d9596a","session_id":"619be32619886dee245cca72","condition":"full-information","relevant_dimensions":["wings","pattern"],"bee_group":{"antennae":"X","wings":"2","pattern":"D","legs":"X"},"bonus":1.3800000000000008},{"rt":1231.2000000476837,"stimulus":"bees-with-color/bee-B2DM.svg","response":1,"trial_type":"image-button-response","trial_index":35,"time_elapsed":625530,"internal_node_id":"0.0-4.0-0.14","subject_id":"60f69d6499cccd3fbc5de198","study_id":"6197b3f67c2b5cd3b6d9596a","session_id":"619be32619886dee245cca72","condition":"full-information","relevant_dimensions":["wings","pattern"],"bee_group":{"antennae":"X","wings":"2","pattern":"D","legs":"X"},"action":"avoid","summary":"good-avoid","bonus":1.3800000000000008},{"rt":1087.1000000238419,"stimulus":"\n                    <p><b>Action: <em>avoid</em></b></p>\n                    <p>This is the bee that you just saw.</p>\n                    <img src=\"bees-with-color/bee-B2DM.svg\" width=\"200\">\n                    <p><span class=\"greenText\">Good choice!</span>  This bee would have stung you.<br>Your bonus pay is unchanged, and remains at $0.62.</p>\n            ","response":0,"trial_type":"html-button-response","trial_index":36,"time_elapsed":626617,"internal_node_id":"0.0-4.0-1.14","subject_id":"60f69d6499cccd3fbc5de198","study_id":"6197b3f67c2b5cd3b6d9596a","session_id":"619be32619886dee245cca72","condition":"full-information","relevant_dimensions":["wings","pattern"],"bee_group":{"antennae":"X","wings":"2","pattern":"D","legs":"X"},"bonus":1.3800000000000008},{"rt":2207.5,"stimulus":"bees-with-color/bee-A2SM.svg","response":0,"trial_type":"image-button-response","trial_index":37,"time_elapsed":628826,"internal_node_id":"0.0-4.0-0.15","subject_id":"60f69d6499cccd3fbc5de198","study_id":"6197b3f67c2b5cd3b6d9596a","session_id":"619be32619886dee245cca72","condition":"full-information","relevant_dimensions":["wings","pattern"],"bee_group":{"antennae":"X","wings":"2","pattern":"D","legs":"X"},"action":"harvest","summary":"good-harvest","bonus":1.3800000000000008},{"rt":1238.8999999761581,"stimulus":"\n                    <p><b>Action: <em>harvest</em></b></p>\n                    <p>This is the bee that you just saw.</p>\n                    <img src=\"bees-with-color/bee-A2SM.svg\" width=\"200\">\n                    <p><span class=\"greenText\"><b>Successful harvest!</b></span><br>Your pay has increased by $0.02. Your bonus pay is now $0.64.</p>\n            ","response":0,"trial_type":"html-button-response","trial_index":38,"time_elapsed":630066,"internal_node_id":"0.0-4.0-1.15","subject_id":"60f69d6499cccd3fbc5de198","study_id":"6197b3f67c2b5cd3b6d9596a","session_id":"619be32619886dee245cca72","condition":"full-information","relevant_dimensions":["wings","pattern"],"bee_group":{"antennae":"X","wings":"2","pattern":"D","legs":"X"},"bonus":1.3800000000000008},{"rt":1295,"stimulus":"bees-with-color/bee-B2SF.svg","response":0,"trial_type":"image-button-response","trial_index":39,"time_elapsed":631362,"internal_node_id":"0.0-4.0-0.16","subject_id":"60f69d6499cccd3fbc5de198","study_id":"6197b3f67c2b5cd3b6d9596a","session_id":"619be32619886dee245cca72","condition":"full-information","relevant_dimensions":["wings","pattern"],"bee_group":{"antennae":"X","wings":"2","pattern":"D","legs":"X"},"action":"harvest","summary":"good-harvest","bonus":1.3800000000000008},{"rt":431,"stimulus":"\n                    <p><b>Action: <em>harvest</em></b></p>\n                    <p>This is the bee that you just saw.</p>\n                    <img src=\"bees-with-color/bee-B2SF.svg\" width=\"200\">\n                    <p><span class=\"greenText\"><b>Successful harvest!</b></span><br>Your pay has increased by $0.02. Your bonus pay is now $0.66.</p>\n            ","response":0,"trial_type":"html-button-response","trial_index":40,"time_elapsed":631794,"internal_node_id":"0.0-4.0-1.16","subject_id":"60f69d6499cccd3fbc5de198","study_id":"6197b3f67c2b5cd3b6d9596a","session_id":"619be32619886dee245cca72","condition":"full-information","relevant_dimensions":["wings","pattern"],"bee_group":{"antennae":"X","wings":"2","pattern":"D","legs":"X"},"bonus":1.3800000000000008},{"rt":871.3999999761581,"stimulus":"bees-with-color/bee-A2SF.svg","response":0,"trial_type":"image-button-response","trial_index":41,"time_elapsed":632666,"internal_node_id":"0.0-4.0-0.17","subject_id":"60f69d6499cccd3fbc5de198","study_id":"6197b3f67c2b5cd3b6d9596a","session_id":"619be32619886dee245cca72","condition":"full-information","relevant_dimensions":["wings","pattern"],"bee_group":{"antennae":"X","wings":"2","pattern":"D","legs":"X"},"action":"harvest","summary":"good-harvest","bonus":1.3800000000000008},{"rt":454.7000000476837,"stimulus":"\n                    <p><b>Action: <em>harvest</em></b></p>\n                    <p>This is the bee that you just saw.</p>\n                    <img src=\"bees-with-color/bee-A2SF.svg\" width=\"200\">\n                    <p><span class=\"greenText\"><b>Successful harvest!</b></span><br>Your pay has increased by $0.02. Your bonus pay is now $0.68.</p>\n            ","response":0,"trial_type":"html-button-response","trial_index":42,"time_elapsed":633122,"internal_node_id":"0.0-4.0-1.17","subject_id":"60f69d6499cccd3fbc5de198","study_id":"6197b3f67c2b5cd3b6d9596a","session_id":"619be32619886dee245cca72","condition":"full-information","relevant_dimensions":["wings","pattern"],"bee_group":{"antennae":"X","wings":"2","pattern":"D","legs":"X"},"bonus":1.3800000000000008},{"rt":1167,"stimulus":"bees-with-color/bee-B2DF.svg","response":1,"trial_type":"image-button-response","trial_index":43,"time_elapsed":634290,"internal_node_id":"0.0-4.0-0.18","subject_id":"60f69d6499cccd3fbc5de198","study_id":"6197b3f67c2b5cd3b6d9596a","session_id":"619be32619886dee245cca72","condition":"full-information","relevant_dimensions":["wings","pattern"],"bee_group":{"antennae":"X","wings":"2","pattern":"D","legs":"X"},"action":"avoid","summary":"good-avoid","bonus":1.3800000000000008},{"rt":470.10000002384186,"stimulus":"\n                    <p><b>Action: <em>avoid</em></b></p>\n                    <p>This is the bee that you just saw.</p>\n                    <img src=\"bees-with-color/bee-B2DF.svg\" width=\"200\">\n                    <p><span class=\"greenText\">Good choice!</span>  This bee would have stung you.<br>Your bonus pay is unchanged, and remains at $0.68.</p>\n            ","response":0,"trial_type":"html-button-response","trial_index":44,"time_elapsed":634762,"internal_node_id":"0.0-4.0-1.18","subject_id":"60f69d6499cccd3fbc5de198","study_id":"6197b3f67c2b5cd3b6d9596a","session_id":"619be32619886dee245cca72","condition":"full-information","relevant_dimensions":["wings","pattern"],"bee_group":{"antennae":"X","wings":"2","pattern":"D","legs":"X"},"bonus":1.3800000000000008},{"rt":1224.1999999284744,"stimulus":"bees-with-color/bee-B2DM.svg","response":1,"trial_type":"image-button-response","trial_index":45,"time_elapsed":635987,"internal_node_id":"0.0-4.0-0.19","subject_id":"60f69d6499cccd3fbc5de198","study_id":"6197b3f67c2b5cd3b6d9596a","session_id":"619be32619886dee245cca72","condition":"full-information","relevant_dimensions":["wings","pattern"],"bee_group":{"antennae":"X","wings":"2","pattern":"D","legs":"X"},"action":"avoid","summary":"good-avoid","bonus":1.3800000000000008},{"rt":550.1000000238419,"stimulus":"\n                    <p><b>Action: <em>avoid</em></b></p>\n                    <p>This is the bee that you just saw.</p>\n                    <img src=\"bees-with-color/bee-B2DM.svg\" width=\"200\">\n                    <p><span class=\"greenText\">Good choice!</span>  This bee would have stung you.<br>Your bonus pay is unchanged, and remains at $0.68.</p>\n            ","response":0,"trial_type":"html-button-response","trial_index":46,"time_elapsed":636538,"internal_node_id":"0.0-4.0-1.19","subject_id":"60f69d6499cccd3fbc5de198","study_id":"6197b3f67c2b5cd3b6d9596a","session_id":"619be32619886dee245cca72","condition":"full-information","relevant_dimensions":["wings","pattern"],"bee_group":{"antennae":"X","wings":"2","pattern":"D","legs":"X"},"bonus":1.3800000000000008},{"rt":1279.1000000238419,"stimulus":"bees-with-color/bee-B1SM.svg","response":0,"trial_type":"image-button-response","trial_index":47,"time_elapsed":637817,"internal_node_id":"0.0-4.0-0.20","subject_id":"60f69d6499cccd3fbc5de198","study_id":"6197b3f67c2b5cd3b6d9596a","session_id":"619be32619886dee245cca72","condition":"full-information","relevant_dimensions":["wings","pattern"],"bee_group":{"antennae":"X","wings":"2","pattern":"D","legs":"X"},"action":"harvest","summary":"good-harvest","bonus":1.3800000000000008},{"rt":454.7999999523163,"stimulus":"\n                    <p><b>Action: <em>harvest</em></b></p>\n                    <p>This is the bee that you just saw.</p>\n                    <img src=\"bees-with-color/bee-B1SM.svg\" width=\"200\">\n                    <p><span class=\"greenText\"><b>Successful harvest!</b></span><br>Your pay has increased by $0.02. Your bonus pay is now $0.70.</p>\n            ","response":0,"trial_type":"html-button-response","trial_index":48,"time_elapsed":638273,"internal_node_id":"0.0-4.0-1.20","subject_id":"60f69d6499cccd3fbc5de198","study_id":"6197b3f67c2b5cd3b6d9596a","session_id":"619be32619886dee245cca72","condition":"full-information","relevant_dimensions":["wings","pattern"],"bee_group":{"antennae":"X","wings":"2","pattern":"D","legs":"X"},"bonus":1.3800000000000008},{"rt":782.8999999761581,"stimulus":"bees-with-color/bee-A2SM.svg","response":0,"trial_type":"image-button-response","trial_index":49,"time_elapsed":639057,"internal_node_id":"0.0-4.0-0.21","subject_id":"60f69d6499cccd3fbc5de198","study_id":"6197b3f67c2b5cd3b6d9596a","session_id":"619be32619886dee245cca72","condition":"full-information","relevant_dimensions":["wings","pattern"],"bee_group":{"antennae":"X","wings":"2","pattern":"D","legs":"X"},"action":"harvest","summary":"good-harvest","bonus":1.3800000000000008},{"rt":366.89999997615814,"stimulus":"\n                    <p><b>Action: <em>harvest</em></b></p>\n                    <p>This is the bee that you just saw.</p>\n                    <img src=\"bees-with-color/bee-A2SM.svg\" width=\"200\">\n                    <p><span class=\"greenText\"><b>Successful harvest!</b></span><br>Your pay has increased by $0.02. Your bonus pay is now $0.72.</p>\n            ","response":0,"trial_type":"html-button-response","trial_index":50,"time_elapsed":639425,"internal_node_id":"0.0-4.0-1.21","subject_id":"60f69d6499cccd3fbc5de198","study_id":"6197b3f67c2b5cd3b6d9596a","session_id":"619be32619886dee245cca72","condition":"full-information","relevant_dimensions":["wings","pattern"],"bee_group":{"antennae":"X","wings":"2","pattern":"D","legs":"X"},"bonus":1.3800000000000008},{"rt":718.8999999761581,"stimulus":"bees-with-color/bee-A1SF.svg","response":0,"trial_type":"image-button-response","trial_index":51,"time_elapsed":640145,"internal_node_id":"0.0-4.0-0.22","subject_id":"60f69d6499cccd3fbc5de198","study_id":"6197b3f67c2b5cd3b6d9596a","session_id":"619be32619886dee245cca72","condition":"full-information","relevant_dimensions":["wings","pattern"],"bee_group":{"antennae":"X","wings":"2","pattern":"D","legs":"X"},"action":"harvest","summary":"good-harvest","bonus":1.3800000000000008},{"rt":374.7000000476837,"stimulus":"\n                    <p><b>Action: <em>harvest</em></b></p>\n                    <p>This is the bee that you just saw.</p>\n                    <img src=\"bees-with-color/bee-A1SF.svg\" width=\"200\">\n                    <p><span class=\"greenText\"><b>Successful harvest!</b></span><br>Your pay has increased by $0.02. Your bonus pay is now $0.74.</p>\n            ","response":0,"trial_type":"html-button-response","trial_index":52,"time_elapsed":640521,"internal_node_id":"0.0-4.0-1.22","subject_id":"60f69d6499cccd3fbc5de198","study_id":"6197b3f67c2b5cd3b6d9596a","session_id":"619be32619886dee245cca72","condition":"full-information","relevant_dimensions":["wings","pattern"],"bee_group":{"antennae":"X","wings":"2","pattern":"D","legs":"X"},"bonus":1.3800000000000008},{"rt":711,"stimulus":"bees-with-color/bee-B1SF.svg","response":0,"trial_type":"image-button-response","trial_index":53,"time_elapsed":641233,"internal_node_id":"0.0-4.0-0.23","subject_id":"60f69d6499cccd3fbc5de198","study_id":"6197b3f67c2b5cd3b6d9596a","session_id":"619be32619886dee245cca72","condition":"full-information","relevant_dimensions":["wings","pattern"],"bee_group":{"antennae":"X","wings":"2","pattern":"D","legs":"X"},"action":"harvest","summary":"good-harvest","bonus":1.3800000000000008},{"rt":750.6999999284744,"stimulus":"\n                    <p><b>Action: <em>harvest</em></b></p>\n                    <p>This is the bee that you just saw.</p>\n                    <img src=\"bees-with-color/bee-B1SF.svg\" width=\"200\">\n                    <p><span class=\"greenText\"><b>Successful harvest!</b></span><br>Your pay has increased by $0.02. Your bonus pay is now $0.76.</p>\n            ","response":0,"trial_type":"html-button-response","trial_index":54,"time_elapsed":641985,"internal_node_id":"0.0-4.0-1.23","subject_id":"60f69d6499cccd3fbc5de198","study_id":"6197b3f67c2b5cd3b6d9596a","session_id":"619be32619886dee245cca72","condition":"full-information","relevant_dimensions":["wings","pattern"],"bee_group":{"antennae":"X","wings":"2","pattern":"D","legs":"X"},"bonus":1.3800000000000008},{"rt":550.7000000476837,"stimulus":"bees-with-color/bee-A1SM.svg","response":0,"trial_type":"image-button-response","trial_index":55,"time_elapsed":642537,"internal_node_id":"0.0-4.0-0.24","subject_id":"60f69d6499cccd3fbc5de198","study_id":"6197b3f67c2b5cd3b6d9596a","session_id":"619be32619886dee245cca72","condition":"full-information","relevant_dimensions":["wings","pattern"],"bee_group":{"antennae":"X","wings":"2","pattern":"D","legs":"X"},"action":"harvest","summary":"good-harvest","bonus":1.3800000000000008},{"rt":414.7999999523163,"stimulus":"\n                    <p><b>Action: <em>harvest</em></b></p>\n                    <p>This is the bee that you just saw.</p>\n                    <img src=\"bees-with-color/bee-A1SM.svg\" width=\"200\">\n                    <p><span class=\"greenText\"><b>Successful harvest!</b></span><br>Your pay has increased by $0.02. Your bonus pay is now $0.78.</p>\n            ","response":0,"trial_type":"html-button-response","trial_index":56,"time_elapsed":642953,"internal_node_id":"0.0-4.0-1.24","subject_id":"60f69d6499cccd3fbc5de198","study_id":"6197b3f67c2b5cd3b6d9596a","session_id":"619be32619886dee245cca72","condition":"full-information","relevant_dimensions":["wings","pattern"],"bee_group":{"antennae":"X","wings":"2","pattern":"D","legs":"X"},"bonus":1.3800000000000008},{"rt":1318.8999999761581,"stimulus":"bees-with-color/bee-A1DM.svg","response":0,"trial_type":"image-button-response","trial_index":57,"time_elapsed":644273,"internal_node_id":"0.0-4.0-0.25","subject_id":"60f69d6499cccd3fbc5de198","study_id":"6197b3f67c2b5cd3b6d9596a","session_id":"619be32619886dee245cca72","condition":"full-information","relevant_dimensions":["wings","pattern"],"bee_group":{"antennae":"X","wings":"2","pattern":"D","legs":"X"},"action":"harvest","summary":"good-harvest","bonus":1.3800000000000008},{"rt":535.1000000238419,"stimulus":"\n                    <p><b>Action: <em>harvest</em></b></p>\n                    <p>This is the bee that you just saw.</p>\n                    <img src=\"bees-with-color/bee-A1DM.svg\" width=\"200\">\n                    <p><span class=\"greenText\"><b>Successful harvest!</b></span><br>Your pay has increased by $0.02. Your bonus pay is now $0.80.</p>\n            ","response":0,"trial_type":"html-button-response","trial_index":58,"time_elapsed":644809,"internal_node_id":"0.0-4.0-1.25","subject_id":"60f69d6499cccd3fbc5de198","study_id":"6197b3f67c2b5cd3b6d9596a","session_id":"619be32619886dee245cca72","condition":"full-information","relevant_dimensions":["wings","pattern"],"bee_group":{"antennae":"X","wings":"2","pattern":"D","legs":"X"},"bonus":1.3800000000000008},{"rt":1238.6000000238419,"stimulus":"bees-with-color/bee-A2DF.svg","response":1,"trial_type":"image-button-response","trial_index":59,"time_elapsed":646049,"internal_node_id":"0.0-4.0-0.26","subject_id":"60f69d6499cccd3fbc5de198","study_id":"6197b3f67c2b5cd3b6d9596a","session_id":"619be32619886dee245cca72","condition":"full-information","relevant_dimensions":["wings","pattern"],"bee_group":{"antennae":"X","wings":"2","pattern":"D","legs":"X"},"action":"avoid","summary":"good-avoid","bonus":1.3800000000000008},{"rt":479.2000000476837,"stimulus":"\n                    <p><b>Action: <em>avoid</em></b></p>\n                    <p>This is the bee that you just saw.</p>\n                    <img src=\"bees-with-color/bee-A2DF.svg\" width=\"200\">\n                    <p><span class=\"greenText\">Good choice!</span>  This bee would have stung you.<br>Your bonus pay is unchanged, and remains at $0.80.</p>\n            ","response":0,"trial_type":"html-button-response","trial_index":60,"time_elapsed":646529,"internal_node_id":"0.0-4.0-1.26","subject_id":"60f69d6499cccd3fbc5de198","study_id":"6197b3f67c2b5cd3b6d9596a","session_id":"619be32619886dee245cca72","condition":"full-information","relevant_dimensions":["wings","pattern"],"bee_group":{"antennae":"X","wings":"2","pattern":"D","legs":"X"},"bonus":1.3800000000000008},{"rt":1046.5,"stimulus":"bees-with-color/bee-A2DM.svg","response":1,"trial_type":"image-button-response","trial_index":61,"time_elapsed":647577,"internal_node_id":"0.0-4.0-0.27","subject_id":"60f69d6499cccd3fbc5de198","study_id":"6197b3f67c2b5cd3b6d9596a","session_id":"619be32619886dee245cca72","condition":"full-information","relevant_dimensions":["wings","pattern"],"bee_group":{"antennae":"X","wings":"2","pattern":"D","legs":"X"},"action":"avoid","summary":"good-avoid","bonus":1.3800000000000008},{"rt":398.7999999523163,"stimulus":"\n                    <p><b>Action: <em>avoid</em></b></p>\n                    <p>This is the bee that you just saw.</p>\n                    <img src=\"bees-with-color/bee-A2DM.svg\" width=\"200\">\n                    <p><span class=\"greenText\">Good choice!</span>  This bee would have stung you.<br>Your bonus pay is unchanged, and remains at $0.80.</p>\n            ","response":0,"trial_type":"html-button-response","trial_index":62,"time_elapsed":647977,"internal_node_id":"0.0-4.0-1.27","subject_id":"60f69d6499cccd3fbc5de198","study_id":"6197b3f67c2b5cd3b6d9596a","session_id":"619be32619886dee245cca72","condition":"full-information","relevant_dimensions":["wings","pattern"],"bee_group":{"antennae":"X","wings":"2","pattern":"D","legs":"X"},"bonus":1.3800000000000008},{"rt":1030.8000000715256,"stimulus":"bees-with-color/bee-A1DF.svg","response":0,"trial_type":"image-button-response","trial_index":63,"time_elapsed":649009,"internal_node_id":"0.0-4.0-0.28","subject_id":"60f69d6499cccd3fbc5de198","study_id":"6197b3f67c2b5cd3b6d9596a","session_id":"619be32619886dee245cca72","condition":"full-information","relevant_dimensions":["wings","pattern"],"bee_group":{"antennae":"X","wings":"2","pattern":"D","legs":"X"},"action":"harvest","summary":"good-harvest","bonus":1.3800000000000008},{"rt":351.2999999523163,"stimulus":"\n                    <p><b>Action: <em>harvest</em></b></p>\n                    <p>This is the bee that you just saw.</p>\n                    <img src=\"bees-with-color/bee-A1DF.svg\" width=\"200\">\n                    <p><span class=\"greenText\"><b>Successful harvest!</b></span><br>Your pay has increased by $0.02. Your bonus pay is now $0.82.</p>\n            ","response":0,"trial_type":"html-button-response","trial_index":64,"time_elapsed":649362,"internal_node_id":"0.0-4.0-1.28","subject_id":"60f69d6499cccd3fbc5de198","study_id":"6197b3f67c2b5cd3b6d9596a","session_id":"619be32619886dee245cca72","condition":"full-information","relevant_dimensions":["wings","pattern"],"bee_group":{"antennae":"X","wings":"2","pattern":"D","legs":"X"},"bonus":1.3800000000000008},{"rt":958.2999999523163,"stimulus":"bees-with-color/bee-B2SM.svg","response":0,"trial_type":"image-button-response","trial_index":65,"time_elapsed":650321,"internal_node_id":"0.0-4.0-0.29","subject_id":"60f69d6499cccd3fbc5de198","study_id":"6197b3f67c2b5cd3b6d9596a","session_id":"619be32619886dee245cca72","condition":"full-information","relevant_dimensions":["wings","pattern"],"bee_group":{"antennae":"X","wings":"2","pattern":"D","legs":"X"},"action":"harvest","summary":"good-harvest","bonus":1.3800000000000008},{"rt":375.1999999284744,"stimulus":"\n                    <p><b>Action: <em>harvest</em></b></p>\n                    <p>This is the bee that you just saw.</p>\n                    <img src=\"bees-with-color/bee-B2SM.svg\" width=\"200\">\n                    <p><span class=\"greenText\"><b>Successful harvest!</b></span><br>Your pay has increased by $0.02. Your bonus pay is now $0.84.</p>\n            ","response":0,"trial_type":"html-button-response","trial_index":66,"time_elapsed":650697,"internal_node_id":"0.0-4.0-1.29","subject_id":"60f69d6499cccd3fbc5de198","study_id":"6197b3f67c2b5cd3b6d9596a","session_id":"619be32619886dee245cca72","condition":"full-information","relevant_dimensions":["wings","pattern"],"bee_group":{"antennae":"X","wings":"2","pattern":"D","legs":"X"},"bonus":1.3800000000000008},{"rt":1390.5,"stimulus":"bees-with-color/bee-B1DF.svg","response":0,"trial_type":"image-button-response","trial_index":67,"time_elapsed":652089,"internal_node_id":"0.0-4.0-0.30","subject_id":"60f69d6499cccd3fbc5de198","study_id":"6197b3f67c2b5cd3b6d9596a","session_id":"619be32619886dee245cca72","condition":"full-information","relevant_dimensions":["wings","pattern"],"bee_group":{"antennae":"X","wings":"2","pattern":"D","legs":"X"},"action":"harvest","summary":"good-harvest","bonus":1.3800000000000008},{"rt":359.2999999523163,"stimulus":"\n                    <p><b>Action: <em>harvest</em></b></p>\n                    <p>This is the bee that you just saw.</p>\n                    <img src=\"bees-with-color/bee-B1DF.svg\" width=\"200\">\n                    <p><span class=\"greenText\"><b>Successful harvest!</b></span><br>Your pay has increased by $0.02. Your bonus pay is now $0.86.</p>\n            ","response":0,"trial_type":"html-button-response","trial_index":68,"time_elapsed":652449,"internal_node_id":"0.0-4.0-1.30","subject_id":"60f69d6499cccd3fbc5de198","study_id":"6197b3f67c2b5cd3b6d9596a","session_id":"619be32619886dee245cca72","condition":"full-information","relevant_dimensions":["wings","pattern"],"bee_group":{"antennae":"X","wings":"2","pattern":"D","legs":"X"},"bonus":1.3800000000000008},{"rt":1015.1999999284744,"stimulus":"bees-with-color/bee-B1DM.svg","response":0,"trial_type":"image-button-response","trial_index":69,"time_elapsed":653465,"internal_node_id":"0.0-4.0-0.31","subject_id":"60f69d6499cccd3fbc5de198","study_id":"6197b3f67c2b5cd3b6d9596a","session_id":"619be32619886dee245cca72","condition":"full-information","relevant_dimensions":["wings","pattern"],"bee_group":{"antennae":"X","wings":"2","pattern":"D","legs":"X"},"action":"harvest","summary":"good-harvest","bonus":1.3800000000000008},{"rt":375.1999999284744,"stimulus":"\n                    <p><b>Action: <em>harvest</em></b></p>\n                    <p>This is the bee that you just saw.</p>\n                    <img src=\"bees-with-color/bee-B1DM.svg\" width=\"200\">\n                    <p><span class=\"greenText\"><b>Successful harvest!</b></span><br>Your pay has increased by $0.02. Your bonus pay is now $0.88.</p>\n            ","response":0,"trial_type":"html-button-response","trial_index":70,"time_elapsed":653841,"internal_node_id":"0.0-4.0-1.31","subject_id":"60f69d6499cccd3fbc5de198","study_id":"6197b3f67c2b5cd3b6d9596a","session_id":"619be32619886dee245cca72","condition":"full-information","relevant_dimensions":["wings","pattern"],"bee_group":{"antennae":"X","wings":"2","pattern":"D","legs":"X"},"bonus":1.3800000000000008},{"rt":1087.1000000238419,"stimulus":"bees-with-color/bee-B2DM.svg","response":1,"trial_type":"image-button-response","trial_index":71,"time_elapsed":654929,"internal_node_id":"0.0-4.0-0.32","subject_id":"60f69d6499cccd3fbc5de198","study_id":"6197b3f67c2b5cd3b6d9596a","session_id":"619be32619886dee245cca72","condition":"full-information","relevant_dimensions":["wings","pattern"],"bee_group":{"antennae":"X","wings":"2","pattern":"D","legs":"X"},"action":"avoid","summary":"good-avoid","bonus":1.3800000000000008},{"rt":399.1999999284744,"stimulus":"\n                    <p><b>Action: <em>avoid</em></b></p>\n                    <p>This is the bee that you just saw.</p>\n                    <img src=\"bees-with-color/bee-B2DM.svg\" width=\"200\">\n                    <p><span class=\"greenText\">Good choice!</span>  This bee would have stung you.<br>Your bonus pay is unchanged, and remains at $0.88.</p>\n            ","response":0,"trial_type":"html-button-response","trial_index":72,"time_elapsed":655329,"internal_node_id":"0.0-4.0-1.32","subject_id":"60f69d6499cccd3fbc5de198","study_id":"6197b3f67c2b5cd3b6d9596a","session_id":"619be32619886dee245cca72","condition":"full-information","relevant_dimensions":["wings","pattern"],"bee_group":{"antennae":"X","wings":"2","pattern":"D","legs":"X"},"bonus":1.3800000000000008},{"rt":1047.1000000238419,"stimulus":"bees-with-color/bee-B1DF.svg","response":0,"trial_type":"image-button-response","trial_index":73,"time_elapsed":656377,"internal_node_id":"0.0-4.0-0.33","subject_id":"60f69d6499cccd3fbc5de198","study_id":"6197b3f67c2b5cd3b6d9596a","session_id":"619be32619886dee245cca72","condition":"full-information","relevant_dimensions":["wings","pattern"],"bee_group":{"antennae":"X","wings":"2","pattern":"D","legs":"X"},"action":"harvest","summary":"good-harvest","bonus":1.3800000000000008},{"rt":343,"stimulus":"\n                    <p><b>Action: <em>harvest</em></b></p>\n                    <p>This is the bee that you just saw.</p>\n                    <img src=\"bees-with-color/bee-B1DF.svg\" width=\"200\">\n                    <p><span class=\"greenText\"><b>Successful harvest!</b></span><br>Your pay has increased by $0.02. Your bonus pay is now $0.90.</p>\n            ","response":0,"trial_type":"html-button-response","trial_index":74,"time_elapsed":656721,"internal_node_id":"0.0-4.0-1.33","subject_id":"60f69d6499cccd3fbc5de198","study_id":"6197b3f67c2b5cd3b6d9596a","session_id":"619be32619886dee245cca72","condition":"full-information","relevant_dimensions":["wings","pattern"],"bee_group":{"antennae":"X","wings":"2","pattern":"D","legs":"X"},"bonus":1.3800000000000008},{"rt":1127,"stimulus":"bees-with-color/bee-B1SM.svg","response":0,"trial_type":"image-button-response","trial_index":75,"time_elapsed":657849,"internal_node_id":"0.0-4.0-0.34","subject_id":"60f69d6499cccd3fbc5de198","study_id":"6197b3f67c2b5cd3b6d9596a","session_id":"619be32619886dee245cca72","condition":"full-information","relevant_dimensions":["wings","pattern"],"bee_group":{"antennae":"X","wings":"2","pattern":"D","legs":"X"},"action":"harvest","summary":"good-harvest","bonus":1.3800000000000008},{"rt":631.2000000476837,"stimulus":"\n                    <p><b>Action: <em>harvest</em></b></p>\n                    <p>This is the bee that you just saw.</p>\n                    <img src=\"bees-with-color/bee-B1SM.svg\" width=\"200\">\n                    <p><span class=\"greenText\"><b>Successful harvest!</b></span><br>Your pay has increased by $0.02. Your bonus pay is now $0.92.</p>\n            ","response":0,"trial_type":"html-button-response","trial_index":76,"time_elapsed":658481,"internal_node_id":"0.0-4.0-1.34","subject_id":"60f69d6499cccd3fbc5de198","study_id":"6197b3f67c2b5cd3b6d9596a","session_id":"619be32619886dee245cca72","condition":"full-information","relevant_dimensions":["wings","pattern"],"bee_group":{"antennae":"X","wings":"2","pattern":"D","legs":"X"},"bonus":1.3800000000000008},{"rt":1046.7000000476837,"stimulus":"bees-with-color/bee-A1DM.svg","response":0,"trial_type":"image-button-response","trial_index":77,"time_elapsed":659529,"internal_node_id":"0.0-4.0-0.35","subject_id":"60f69d6499cccd3fbc5de198","study_id":"6197b3f67c2b5cd3b6d9596a","session_id":"619be32619886dee245cca72","condition":"full-information","relevant_dimensions":["wings","pattern"],"bee_group":{"antennae":"X","wings":"2","pattern":"D","legs":"X"},"action":"harvest","summary":"good-harvest","bonus":1.3800000000000008},{"rt":409,"stimulus":"\n                    <p><b>Action: <em>harvest</em></b></p>\n                    <p>This is the bee that you just saw.</p>\n                    <img src=\"bees-with-color/bee-A1DM.svg\" width=\"200\">\n                    <p><span class=\"greenText\"><b>Successful harvest!</b></span><br>Your pay has increased by $0.02. Your bonus pay is now $0.94.</p>\n            ","response":0,"trial_type":"html-button-response","trial_index":78,"time_elapsed":659939,"internal_node_id":"0.0-4.0-1.35","subject_id":"60f69d6499cccd3fbc5de198","study_id":"6197b3f67c2b5cd3b6d9596a","session_id":"619be32619886dee245cca72","condition":"full-information","relevant_dimensions":["wings","pattern"],"bee_group":{"antennae":"X","wings":"2","pattern":"D","legs":"X"},"bonus":1.3800000000000008},{"rt":957.5,"stimulus":"bees-with-color/bee-A2DF.svg","response":1,"trial_type":"image-button-response","trial_index":79,"time_elapsed":660897,"internal_node_id":"0.0-4.0-0.36","subject_id":"60f69d6499cccd3fbc5de198","study_id":"6197b3f67c2b5cd3b6d9596a","session_id":"619be32619886dee245cca72","condition":"full-information","relevant_dimensions":["wings","pattern"],"bee_group":{"antennae":"X","wings":"2","pattern":"D","legs":"X"},"action":"avoid","summary":"good-avoid","bonus":1.3800000000000008},{"rt":382.6999999284744,"stimulus":"\n                    <p><b>Action: <em>avoid</em></b></p>\n                    <p>This is the bee that you just saw.</p>\n                    <img src=\"bees-with-color/bee-A2DF.svg\" width=\"200\">\n                    <p><span class=\"greenText\">Good choice!</span>  This bee would have stung you.<br>Your bonus pay is unchanged, and remains at $0.94.</p>\n            ","response":0,"trial_type":"html-button-response","trial_index":80,"time_elapsed":661281,"internal_node_id":"0.0-4.0-1.36","subject_id":"60f69d6499cccd3fbc5de198","study_id":"6197b3f67c2b5cd3b6d9596a","session_id":"619be32619886dee245cca72","condition":"full-information","relevant_dimensions":["wings","pattern"],"bee_group":{"antennae":"X","wings":"2","pattern":"D","legs":"X"},"bonus":1.3800000000000008},{"rt":1175.1999999284744,"stimulus":"bees-with-color/bee-A2SM.svg","response":0,"trial_type":"image-button-response","trial_index":81,"time_elapsed":662457,"internal_node_id":"0.0-4.0-0.37","subject_id":"60f69d6499cccd3fbc5de198","study_id":"6197b3f67c2b5cd3b6d9596a","session_id":"619be32619886dee245cca72","condition":"full-information","relevant_dimensions":["wings","pattern"],"bee_group":{"antennae":"X","wings":"2","pattern":"D","legs":"X"},"action":"harvest","summary":"good-harvest","bonus":1.3800000000000008},{"rt":678.9000000953674,"stimulus":"\n                    <p><b>Action: <em>harvest</em></b></p>\n                    <p>This is the bee that you just saw.</p>\n                    <img src=\"bees-with-color/bee-A2SM.svg\" width=\"200\">\n                    <p><span class=\"greenText\"><b>Successful harvest!</b></span><br>Your pay has increased by $0.02. Your bonus pay is now $0.96.</p>\n            ","response":0,"trial_type":"html-button-response","trial_index":82,"time_elapsed":663137,"internal_node_id":"0.0-4.0-1.37","subject_id":"60f69d6499cccd3fbc5de198","study_id":"6197b3f67c2b5cd3b6d9596a","session_id":"619be32619886dee245cca72","condition":"full-information","relevant_dimensions":["wings","pattern"],"bee_group":{"antennae":"X","wings":"2","pattern":"D","legs":"X"},"bonus":1.3800000000000008},{"rt":3191.100000023842,"stimulus":"bees-with-color/bee-B1DM.svg","response":0,"trial_type":"image-button-response","trial_index":83,"time_elapsed":666329,"internal_node_id":"0.0-4.0-0.38","subject_id":"60f69d6499cccd3fbc5de198","study_id":"6197b3f67c2b5cd3b6d9596a","session_id":"619be32619886dee245cca72","condition":"full-information","relevant_dimensions":["wings","pattern"],"bee_group":{"antennae":"X","wings":"2","pattern":"D","legs":"X"},"action":"harvest","summary":"good-harvest","bonus":1.3800000000000008},{"rt":551.4000000953674,"stimulus":"\n                    <p><b>Action: <em>harvest</em></b></p>\n                    <p>This is the bee that you just saw.</p>\n                    <img src=\"bees-with-color/bee-B1DM.svg\" width=\"200\">\n                    <p><span class=\"greenText\"><b>Successful harvest!</b></span><br>Your pay has increased by $0.02. Your bonus pay is now $0.98.</p>\n            ","response":0,"trial_type":"html-button-response","trial_index":84,"time_elapsed":666881,"internal_node_id":"0.0-4.0-1.38","subject_id":"60f69d6499cccd3fbc5de198","study_id":"6197b3f67c2b5cd3b6d9596a","session_id":"619be32619886dee245cca72","condition":"full-information","relevant_dimensions":["wings","pattern"],"bee_group":{"antennae":"X","wings":"2","pattern":"D","legs":"X"},"bonus":1.3800000000000008},{"rt":1014.6999999284744,"stimulus":"bees-with-color/bee-B2SM.svg","response":0,"trial_type":"image-button-response","trial_index":85,"time_elapsed":667897,"internal_node_id":"0.0-4.0-0.39","subject_id":"60f69d6499cccd3fbc5de198","study_id":"6197b3f67c2b5cd3b6d9596a","session_id":"619be32619886dee245cca72","condition":"full-information","relevant_dimensions":["wings","pattern"],"bee_group":{"antennae":"X","wings":"2","pattern":"D","legs":"X"},"action":"harvest","summary":"good-harvest","bonus":1.3800000000000008},{"rt":375.09999990463257,"stimulus":"\n                    <p><b>Action: <em>harvest</em></b></p>\n                    <p>This is the bee that you just saw.</p>\n                    <img src=\"bees-with-color/bee-B2SM.svg\" width=\"200\">\n                    <p><span class=\"greenText\"><b>Successful harvest!</b></span><br>Your pay has increased by $0.02. Your bonus pay is now $1.00.</p>\n            ","response":0,"trial_type":"html-button-response","trial_index":86,"time_elapsed":668273,"internal_node_id":"0.0-4.0-1.39","subject_id":"60f69d6499cccd3fbc5de198","study_id":"6197b3f67c2b5cd3b6d9596a","session_id":"619be32619886dee245cca72","condition":"full-information","relevant_dimensions":["wings","pattern"],"bee_group":{"antennae":"X","wings":"2","pattern":"D","legs":"X"},"bonus":1.3800000000000008},{"rt":1486.8999999761581,"stimulus":"bees-with-color/bee-B2DF.svg","response":1,"trial_type":"image-button-response","trial_index":87,"time_elapsed":669761,"internal_node_id":"0.0-4.0-0.40","subject_id":"60f69d6499cccd3fbc5de198","study_id":"6197b3f67c2b5cd3b6d9596a","session_id":"619be32619886dee245cca72","condition":"full-information","relevant_dimensions":["wings","pattern"],"bee_group":{"antennae":"X","wings":"2","pattern":"D","legs":"X"},"action":"avoid","summary":"good-avoid","bonus":1.3800000000000008},{"rt":358.7999999523163,"stimulus":"\n                    <p><b>Action: <em>avoid</em></b></p>\n                    <p>This is the bee that you just saw.</p>\n                    <img src=\"bees-with-color/bee-B2DF.svg\" width=\"200\">\n                    <p><span class=\"greenText\">Good choice!</span>  This bee would have stung you.<br>Your bonus pay is unchanged, and remains at $1.00.</p>\n            ","response":0,"trial_type":"html-button-response","trial_index":88,"time_elapsed":670121,"internal_node_id":"0.0-4.0-1.40","subject_id":"60f69d6499cccd3fbc5de198","study_id":"6197b3f67c2b5cd3b6d9596a","session_id":"619be32619886dee245cca72","condition":"full-information","relevant_dimensions":["wings","pattern"],"bee_group":{"antennae":"X","wings":"2","pattern":"D","legs":"X"},"bonus":1.3800000000000008},{"rt":871.0999999046326,"stimulus":"bees-with-color/bee-A1DF.svg","response":0,"trial_type":"image-button-response","trial_index":89,"time_elapsed":670994,"internal_node_id":"0.0-4.0-0.41","subject_id":"60f69d6499cccd3fbc5de198","study_id":"6197b3f67c2b5cd3b6d9596a","session_id":"619be32619886dee245cca72","condition":"full-information","relevant_dimensions":["wings","pattern"],"bee_group":{"antennae":"X","wings":"2","pattern":"D","legs":"X"},"action":"harvest","summary":"good-harvest","bonus":1.3800000000000008},{"rt":406.10000002384186,"stimulus":"\n                    <p><b>Action: <em>harvest</em></b></p>\n                    <p>This is the bee that you just saw.</p>\n                    <img src=\"bees-with-color/bee-A1DF.svg\" width=\"200\">\n                    <p><span class=\"greenText\"><b>Successful harvest!</b></span><br>Your pay has increased by $0.02. Your bonus pay is now $1.02.</p>\n            ","response":0,"trial_type":"html-button-response","trial_index":90,"time_elapsed":671401,"internal_node_id":"0.0-4.0-1.41","subject_id":"60f69d6499cccd3fbc5de198","study_id":"6197b3f67c2b5cd3b6d9596a","session_id":"619be32619886dee245cca72","condition":"full-information","relevant_dimensions":["wings","pattern"],"bee_group":{"antennae":"X","wings":"2","pattern":"D","legs":"X"},"bonus":1.3800000000000008},{"rt":1031,"stimulus":"bees-with-color/bee-A1SF.svg","response":0,"trial_type":"image-button-response","trial_index":91,"time_elapsed":672433,"internal_node_id":"0.0-4.0-0.42","subject_id":"60f69d6499cccd3fbc5de198","study_id":"6197b3f67c2b5cd3b6d9596a","session_id":"619be32619886dee245cca72","condition":"full-information","relevant_dimensions":["wings","pattern"],"bee_group":{"antennae":"X","wings":"2","pattern":"D","legs":"X"},"action":"harvest","summary":"good-harvest","bonus":1.3800000000000008},{"rt":470.8000000715256,"stimulus":"\n                    <p><b>Action: <em>harvest</em></b></p>\n                    <p>This is the bee that you just saw.</p>\n                    <img src=\"bees-with-color/bee-A1SF.svg\" width=\"200\">\n                    <p><span class=\"greenText\"><b>Successful harvest!</b></span><br>Your pay has increased by $0.02. Your bonus pay is now $1.04.</p>\n            ","response":0,"trial_type":"html-button-response","trial_index":92,"time_elapsed":672905,"internal_node_id":"0.0-4.0-1.42","subject_id":"60f69d6499cccd3fbc5de198","study_id":"6197b3f67c2b5cd3b6d9596a","session_id":"619be32619886dee245cca72","condition":"full-information","relevant_dimensions":["wings","pattern"],"bee_group":{"antennae":"X","wings":"2","pattern":"D","legs":"X"},"bonus":1.3800000000000008},{"rt":1015.1000000238419,"stimulus":"bees-with-color/bee-A2DM.svg","response":1,"trial_type":"image-button-response","trial_index":93,"time_elapsed":673921,"internal_node_id":"0.0-4.0-0.43","subject_id":"60f69d6499cccd3fbc5de198","study_id":"6197b3f67c2b5cd3b6d9596a","session_id":"619be32619886dee245cca72","condition":"full-information","relevant_dimensions":["wings","pattern"],"bee_group":{"antennae":"X","wings":"2","pattern":"D","legs":"X"},"action":"avoid","summary":"good-avoid","bonus":1.3800000000000008},{"rt":430.40000009536743,"stimulus":"\n                    <p><b>Action: <em>avoid</em></b></p>\n                    <p>This is the bee that you just saw.</p>\n                    <img src=\"bees-with-color/bee-A2DM.svg\" width=\"200\">\n                    <p><span class=\"greenText\">Good choice!</span>  This bee would have stung you.<br>Your bonus pay is unchanged, and remains at $1.04.</p>\n            ","response":0,"trial_type":"html-button-response","trial_index":94,"time_elapsed":674353,"internal_node_id":"0.0-4.0-1.43","subject_id":"60f69d6499cccd3fbc5de198","study_id":"6197b3f67c2b5cd3b6d9596a","session_id":"619be32619886dee245cca72","condition":"full-information","relevant_dimensions":["wings","pattern"],"bee_group":{"antennae":"X","wings":"2","pattern":"D","legs":"X"},"bonus":1.3800000000000008},{"rt":735,"stimulus":"bees-with-color/bee-B2SF.svg","response":0,"trial_type":"image-button-response","trial_index":95,"time_elapsed":675089,"internal_node_id":"0.0-4.0-0.44","subject_id":"60f69d6499cccd3fbc5de198","study_id":"6197b3f67c2b5cd3b6d9596a","session_id":"619be32619886dee245cca72","condition":"full-information","relevant_dimensions":["wings","pattern"],"bee_group":{"antennae":"X","wings":"2","pattern":"D","legs":"X"},"action":"harvest","summary":"good-harvest","bonus":1.3800000000000008},{"rt":447,"stimulus":"\n                    <p><b>Action: <em>harvest</em></b></p>\n                    <p>This is the bee that you just saw.</p>\n                    <img src=\"bees-with-color/bee-B2SF.svg\" width=\"200\">\n                    <p><span class=\"greenText\"><b>Successful harvest!</b></span><br>Your pay has increased by $0.02. Your bonus pay is now $1.06.</p>\n            ","response":0,"trial_type":"html-button-response","trial_index":96,"time_elapsed":675537,"internal_node_id":"0.0-4.0-1.44","subject_id":"60f69d6499cccd3fbc5de198","study_id":"6197b3f67c2b5cd3b6d9596a","session_id":"619be32619886dee245cca72","condition":"full-information","relevant_dimensions":["wings","pattern"],"bee_group":{"antennae":"X","wings":"2","pattern":"D","legs":"X"},"bonus":1.3800000000000008},{"rt":766.6999999284744,"stimulus":"bees-with-color/bee-A1SM.svg","response":0,"trial_type":"image-button-response","trial_index":97,"time_elapsed":676305,"internal_node_id":"0.0-4.0-0.45","subject_id":"60f69d6499cccd3fbc5de198","study_id":"6197b3f67c2b5cd3b6d9596a","session_id":"619be32619886dee245cca72","condition":"full-information","relevant_dimensions":["wings","pattern"],"bee_group":{"antennae":"X","wings":"2","pattern":"D","legs":"X"},"action":"harvest","summary":"good-harvest","bonus":1.3800000000000008},{"rt":422.60000002384186,"stimulus":"\n                    <p><b>Action: <em>harvest</em></b></p>\n                    <p>This is the bee that you just saw.</p>\n                    <img src=\"bees-with-color/bee-A1SM.svg\" width=\"200\">\n                    <p><span class=\"greenText\"><b>Successful harvest!</b></span><br>Your pay has increased by $0.02. Your bonus pay is now $1.08.</p>\n            ","response":0,"trial_type":"html-button-response","trial_index":98,"time_elapsed":676729,"internal_node_id":"0.0-4.0-1.45","subject_id":"60f69d6499cccd3fbc5de198","study_id":"6197b3f67c2b5cd3b6d9596a","session_id":"619be32619886dee245cca72","condition":"full-information","relevant_dimensions":["wings","pattern"],"bee_group":{"antennae":"X","wings":"2","pattern":"D","legs":"X"},"bonus":1.3800000000000008},{"rt":670.8999999761581,"stimulus":"bees-with-color/bee-B1SF.svg","response":0,"trial_type":"image-button-response","trial_index":99,"time_elapsed":677401,"internal_node_id":"0.0-4.0-0.46","subject_id":"60f69d6499cccd3fbc5de198","study_id":"6197b3f67c2b5cd3b6d9596a","session_id":"619be32619886dee245cca72","condition":"full-information","relevant_dimensions":["wings","pattern"],"bee_group":{"antennae":"X","wings":"2","pattern":"D","legs":"X"},"action":"harvest","summary":"good-harvest","bonus":1.3800000000000008},{"rt":766.7000000476837,"stimulus":"\n                    <p><b>Action: <em>harvest</em></b></p>\n                    <p>This is the bee that you just saw.</p>\n                    <img src=\"bees-with-color/bee-B1SF.svg\" width=\"200\">\n                    <p><span class=\"greenText\"><b>Successful harvest!</b></span><br>Your pay has increased by $0.02. Your bonus pay is now $1.10.</p>\n            ","response":0,"trial_type":"html-button-response","trial_index":100,"time_elapsed":678169,"internal_node_id":"0.0-4.0-1.46","subject_id":"60f69d6499cccd3fbc5de198","study_id":"6197b3f67c2b5cd3b6d9596a","session_id":"619be32619886dee245cca72","condition":"full-information","relevant_dimensions":["wings","pattern"],"bee_group":{"antennae":"X","wings":"2","pattern":"D","legs":"X"},"bonus":1.3800000000000008},{"rt":631.2999999523163,"stimulus":"bees-with-color/bee-A2SF.svg","response":0,"trial_type":"image-button-response","trial_index":101,"time_elapsed":678801,"internal_node_id":"0.0-4.0-0.47","subject_id":"60f69d6499cccd3fbc5de198","study_id":"6197b3f67c2b5cd3b6d9596a","session_id":"619be32619886dee245cca72","condition":"full-information","relevant_dimensions":["wings","pattern"],"bee_group":{"antennae":"X","wings":"2","pattern":"D","legs":"X"},"action":"harvest","summary":"good-harvest","bonus":1.3800000000000008},{"rt":655.1999999284744,"stimulus":"\n                    <p><b>Action: <em>harvest</em></b></p>\n                    <p>This is the bee that you just saw.</p>\n                    <img src=\"bees-with-color/bee-A2SF.svg\" width=\"200\">\n                    <p><span class=\"greenText\"><b>Successful harvest!</b></span><br>Your pay has increased by $0.02. Your bonus pay is now $1.12.</p>\n            ","response":0,"trial_type":"html-button-response","trial_index":102,"time_elapsed":679457,"internal_node_id":"0.0-4.0-1.47","subject_id":"60f69d6499cccd3fbc5de198","study_id":"6197b3f67c2b5cd3b6d9596a","session_id":"619be32619886dee245cca72","condition":"full-information","relevant_dimensions":["wings","pattern"],"bee_group":{"antennae":"X","wings":"2","pattern":"D","legs":"X"},"bonus":1.3800000000000008},{"rt":1151.6999999284744,"stimulus":"bees-with-color/bee-A1DM.svg","response":0,"trial_type":"image-button-response","trial_index":103,"time_elapsed":680609,"internal_node_id":"0.0-4.0-0.48","subject_id":"60f69d6499cccd3fbc5de198","study_id":"6197b3f67c2b5cd3b6d9596a","session_id":"619be32619886dee245cca72","condition":"full-information","relevant_dimensions":["wings","pattern"],"bee_group":{"antennae":"X","wings":"2","pattern":"D","legs":"X"},"action":"harvest","summary":"good-harvest","bonus":1.3800000000000008},{"rt":430.5,"stimulus":"\n                    <p><b>Action: <em>harvest</em></b></p>\n                    <p>This is the bee that you just saw.</p>\n                    <img src=\"bees-with-color/bee-A1DM.svg\" width=\"200\">\n                    <p><span class=\"greenText\"><b>Successful harvest!</b></span><br>Your pay has increased by $0.02. Your bonus pay is now $1.14.</p>\n            ","response":0,"trial_type":"html-button-response","trial_index":104,"time_elapsed":681041,"internal_node_id":"0.0-4.0-1.48","subject_id":"60f69d6499cccd3fbc5de198","study_id":"6197b3f67c2b5cd3b6d9596a","session_id":"619be32619886dee245cca72","condition":"full-information","relevant_dimensions":["wings","pattern"],"bee_group":{"antennae":"X","wings":"2","pattern":"D","legs":"X"},"bonus":1.3800000000000008},{"rt":1280.1000000238419,"stimulus":"bees-with-color/bee-A1SF.svg","response":0,"trial_type":"image-button-response","trial_index":105,"time_elapsed":682322,"internal_node_id":"0.0-4.0-0.49","subject_id":"60f69d6499cccd3fbc5de198","study_id":"6197b3f67c2b5cd3b6d9596a","session_id":"619be32619886dee245cca72","condition":"full-information","relevant_dimensions":["wings","pattern"],"bee_group":{"antennae":"X","wings":"2","pattern":"D","legs":"X"},"action":"harvest","summary":"good-harvest","bonus":1.3800000000000008},{"rt":727.6000000238419,"stimulus":"\n                    <p><b>Action: <em>harvest</em></b></p>\n                    <p>This is the bee that you just saw.</p>\n                    <img src=\"bees-with-color/bee-A1SF.svg\" width=\"200\">\n                    <p><span class=\"greenText\"><b>Successful harvest!</b></span><br>Your pay has increased by $0.02. Your bonus pay is now $1.16.</p>\n            ","response":0,"trial_type":"html-button-response","trial_index":106,"time_elapsed":683050,"internal_node_id":"0.0-4.0-1.49","subject_id":"60f69d6499cccd3fbc5de198","study_id":"6197b3f67c2b5cd3b6d9596a","session_id":"619be32619886dee245cca72","condition":"full-information","relevant_dimensions":["wings","pattern"],"bee_group":{"antennae":"X","wings":"2","pattern":"D","legs":"X"},"bonus":1.3800000000000008},{"rt":1117.8999999761581,"stimulus":"bees-with-color/bee-B2SF.svg","response":0,"trial_type":"image-button-response","trial_index":107,"time_elapsed":684169,"internal_node_id":"0.0-4.0-0.50","subject_id":"60f69d6499cccd3fbc5de198","study_id":"6197b3f67c2b5cd3b6d9596a","session_id":"619be32619886dee245cca72","condition":"full-information","relevant_dimensions":["wings","pattern"],"bee_group":{"antennae":"X","wings":"2","pattern":"D","legs":"X"},"action":"harvest","summary":"good-harvest","bonus":1.3800000000000008},{"rt":390.8000000715256,"stimulus":"\n                    <p><b>Action: <em>harvest</em></b></p>\n                    <p>This is the bee that you just saw.</p>\n                    <img src=\"bees-with-color/bee-B2SF.svg\" width=\"200\">\n                    <p><span class=\"greenText\"><b>Successful harvest!</b></span><br>Your pay has increased by $0.02. Your bonus pay is now $1.18.</p>\n            ","response":0,"trial_type":"html-button-response","trial_index":108,"time_elapsed":684561,"internal_node_id":"0.0-4.0-1.50","subject_id":"60f69d6499cccd3fbc5de198","study_id":"6197b3f67c2b5cd3b6d9596a","session_id":"619be32619886dee245cca72","condition":"full-information","relevant_dimensions":["wings","pattern"],"bee_group":{"antennae":"X","wings":"2","pattern":"D","legs":"X"},"bonus":1.3800000000000008},{"rt":1335.1999999284744,"stimulus":"bees-with-color/bee-B2DM.svg","response":1,"trial_type":"image-button-response","trial_index":109,"time_elapsed":685897,"internal_node_id":"0.0-4.0-0.51","subject_id":"60f69d6499cccd3fbc5de198","study_id":"6197b3f67c2b5cd3b6d9596a","session_id":"619be32619886dee245cca72","condition":"full-information","relevant_dimensions":["wings","pattern"],"bee_group":{"antennae":"X","wings":"2","pattern":"D","legs":"X"},"action":"avoid","summary":"good-avoid","bonus":1.3800000000000008},{"rt":359.09999990463257,"stimulus":"\n                    <p><b>Action: <em>avoid</em></b></p>\n                    <p>This is the bee that you just saw.</p>\n                    <img src=\"bees-with-color/bee-B2DM.svg\" width=\"200\">\n                    <p><span class=\"greenText\">Good choice!</span>  This bee would have stung you.<br>Your bonus pay is unchanged, and remains at $1.18.</p>\n            ","response":0,"trial_type":"html-button-response","trial_index":110,"time_elapsed":686257,"internal_node_id":"0.0-4.0-1.51","subject_id":"60f69d6499cccd3fbc5de198","study_id":"6197b3f67c2b5cd3b6d9596a","session_id":"619be32619886dee245cca72","condition":"full-information","relevant_dimensions":["wings","pattern"],"bee_group":{"antennae":"X","wings":"2","pattern":"D","legs":"X"},"bonus":1.3800000000000008},{"rt":2799.0999999046326,"stimulus":"bees-with-color/bee-A1DF.svg","response":0,"trial_type":"image-button-response","trial_index":111,"time_elapsed":689057,"internal_node_id":"0.0-4.0-0.52","subject_id":"60f69d6499cccd3fbc5de198","study_id":"6197b3f67c2b5cd3b6d9596a","session_id":"619be32619886dee245cca72","condition":"full-information","relevant_dimensions":["wings","pattern"],"bee_group":{"antennae":"X","wings":"2","pattern":"D","legs":"X"},"action":"harvest","summary":"good-harvest","bonus":1.3800000000000008},{"rt":615.1000000238419,"stimulus":"\n                    <p><b>Action: <em>harvest</em></b></p>\n                    <p>This is the bee that you just saw.</p>\n                    <img src=\"bees-with-color/bee-A1DF.svg\" width=\"200\">\n                    <p><span class=\"greenText\"><b>Successful harvest!</b></span><br>Your pay has increased by $0.02. Your bonus pay is now $1.20.</p>\n            ","response":0,"trial_type":"html-button-response","trial_index":112,"time_elapsed":689673,"internal_node_id":"0.0-4.0-1.52","subject_id":"60f69d6499cccd3fbc5de198","study_id":"6197b3f67c2b5cd3b6d9596a","session_id":"619be32619886dee245cca72","condition":"full-information","relevant_dimensions":["wings","pattern"],"bee_group":{"antennae":"X","wings":"2","pattern":"D","legs":"X"},"bonus":1.3800000000000008},{"rt":782.7000000476837,"stimulus":"bees-with-color/bee-B1SF.svg","response":0,"trial_type":"image-button-response","trial_index":113,"time_elapsed":690457,"internal_node_id":"0.0-4.0-0.53","subject_id":"60f69d6499cccd3fbc5de198","study_id":"6197b3f67c2b5cd3b6d9596a","session_id":"619be32619886dee245cca72","condition":"full-information","relevant_dimensions":["wings","pattern"],"bee_group":{"antennae":"X","wings":"2","pattern":"D","legs":"X"},"action":"harvest","summary":"good-harvest","bonus":1.3800000000000008},{"rt":367.89999997615814,"stimulus":"\n                    <p><b>Action: <em>harvest</em></b></p>\n                    <p>This is the bee that you just saw.</p>\n                    <img src=\"bees-with-color/bee-B1SF.svg\" width=\"200\">\n                    <p><span class=\"greenText\"><b>Successful harvest!</b></span><br>Your pay has increased by $0.02. Your bonus pay is now $1.22.</p>\n            ","response":0,"trial_type":"html-button-response","trial_index":114,"time_elapsed":690826,"internal_node_id":"0.0-4.0-1.53","subject_id":"60f69d6499cccd3fbc5de198","study_id":"6197b3f67c2b5cd3b6d9596a","session_id":"619be32619886dee245cca72","condition":"full-information","relevant_dimensions":["wings","pattern"],"bee_group":{"antennae":"X","wings":"2","pattern":"D","legs":"X"},"bonus":1.3800000000000008},{"rt":959.2000000476837,"stimulus":"bees-with-color/bee-A2DF.svg","response":1,"trial_type":"image-button-response","trial_index":115,"time_elapsed":691786,"internal_node_id":"0.0-4.0-0.54","subject_id":"60f69d6499cccd3fbc5de198","study_id":"6197b3f67c2b5cd3b6d9596a","session_id":"619be32619886dee245cca72","condition":"full-information","relevant_dimensions":["wings","pattern"],"bee_group":{"antennae":"X","wings":"2","pattern":"D","legs":"X"},"action":"avoid","summary":"good-avoid","bonus":1.3800000000000008},{"rt":382.1999999284744,"stimulus":"\n                    <p><b>Action: <em>avoid</em></b></p>\n                    <p>This is the bee that you just saw.</p>\n                    <img src=\"bees-with-color/bee-A2DF.svg\" width=\"200\">\n                    <p><span class=\"greenText\">Good choice!</span>  This bee would have stung you.<br>Your bonus pay is unchanged, and remains at $1.22.</p>\n            ","response":0,"trial_type":"html-button-response","trial_index":116,"time_elapsed":692169,"internal_node_id":"0.0-4.0-1.54","subject_id":"60f69d6499cccd3fbc5de198","study_id":"6197b3f67c2b5cd3b6d9596a","session_id":"619be32619886dee245cca72","condition":"full-information","relevant_dimensions":["wings","pattern"],"bee_group":{"antennae":"X","wings":"2","pattern":"D","legs":"X"},"bonus":1.3800000000000008},{"rt":815.2000000476837,"stimulus":"bees-with-color/bee-A1SM.svg","response":0,"trial_type":"image-button-response","trial_index":117,"time_elapsed":692985,"internal_node_id":"0.0-4.0-0.55","subject_id":"60f69d6499cccd3fbc5de198","study_id":"6197b3f67c2b5cd3b6d9596a","session_id":"619be32619886dee245cca72","condition":"full-information","relevant_dimensions":["wings","pattern"],"bee_group":{"antennae":"X","wings":"2","pattern":"D","legs":"X"},"action":"harvest","summary":"good-harvest","bonus":1.3800000000000008},{"rt":782.2999999523163,"stimulus":"\n                    <p><b>Action: <em>harvest</em></b></p>\n                    <p>This is the bee that you just saw.</p>\n                    <img src=\"bees-with-color/bee-A1SM.svg\" width=\"200\">\n                    <p><span class=\"greenText\"><b>Successful harvest!</b></span><br>Your pay has increased by $0.02. Your bonus pay is now $1.24.</p>\n            ","response":0,"trial_type":"html-button-response","trial_index":118,"time_elapsed":693769,"internal_node_id":"0.0-4.0-1.55","subject_id":"60f69d6499cccd3fbc5de198","study_id":"6197b3f67c2b5cd3b6d9596a","session_id":"619be32619886dee245cca72","condition":"full-information","relevant_dimensions":["wings","pattern"],"bee_group":{"antennae":"X","wings":"2","pattern":"D","legs":"X"},"bonus":1.3800000000000008},{"rt":1047.2999999523163,"stimulus":"bees-with-color/bee-A2DM.svg","response":1,"trial_type":"image-button-response","trial_index":119,"time_elapsed":694817,"internal_node_id":"0.0-4.0-0.56","subject_id":"60f69d6499cccd3fbc5de198","study_id":"6197b3f67c2b5cd3b6d9596a","session_id":"619be32619886dee245cca72","condition":"full-information","relevant_dimensions":["wings","pattern"],"bee_group":{"antennae":"X","wings":"2","pattern":"D","legs":"X"},"action":"avoid","summary":"good-avoid","bonus":1.3800000000000008},{"rt":342.5,"stimulus":"\n                    <p><b>Action: <em>avoid</em></b></p>\n                    <p>This is the bee that you just saw.</p>\n                    <img src=\"bees-with-color/bee-A2DM.svg\" width=\"200\">\n                    <p><span class=\"greenText\">Good choice!</span>  This bee would have stung you.<br>Your bonus pay is unchanged, and remains at $1.24.</p>\n            ","response":0,"trial_type":"html-button-response","trial_index":120,"time_elapsed":695161,"internal_node_id":"0.0-4.0-1.56","subject_id":"60f69d6499cccd3fbc5de198","study_id":"6197b3f67c2b5cd3b6d9596a","session_id":"619be32619886dee245cca72","condition":"full-information","relevant_dimensions":["wings","pattern"],"bee_group":{"antennae":"X","wings":"2","pattern":"D","legs":"X"},"bonus":1.3800000000000008},{"rt":2191.0999999046326,"stimulus":"bees-with-color/bee-A2SM.svg","response":0,"trial_type":"image-button-response","trial_index":121,"time_elapsed":697353,"internal_node_id":"0.0-4.0-0.57","subject_id":"60f69d6499cccd3fbc5de198","study_id":"6197b3f67c2b5cd3b6d9596a","session_id":"619be32619886dee245cca72","condition":"full-information","relevant_dimensions":["wings","pattern"],"bee_group":{"antennae":"X","wings":"2","pattern":"D","legs":"X"},"action":"harvest","summary":"good-harvest","bonus":1.3800000000000008},{"rt":1022.9000000953674,"stimulus":"\n                    <p><b>Action: <em>harvest</em></b></p>\n                    <p>This is the bee that you just saw.</p>\n                    <img src=\"bees-with-color/bee-A2SM.svg\" width=\"200\">\n                    <p><span class=\"greenText\"><b>Successful harvest!</b></span><br>Your pay has increased by $0.02. Your bonus pay is now $1.26.</p>\n            ","response":0,"trial_type":"html-button-response","trial_index":122,"time_elapsed":698377,"internal_node_id":"0.0-4.0-1.57","subject_id":"60f69d6499cccd3fbc5de198","study_id":"6197b3f67c2b5cd3b6d9596a","session_id":"619be32619886dee245cca72","condition":"full-information","relevant_dimensions":["wings","pattern"],"bee_group":{"antennae":"X","wings":"2","pattern":"D","legs":"X"},"bonus":1.3800000000000008},{"rt":975.1999999284744,"stimulus":"bees-with-color/bee-B2DF.svg","response":1,"trial_type":"image-button-response","trial_index":123,"time_elapsed":699353,"internal_node_id":"0.0-4.0-0.58","subject_id":"60f69d6499cccd3fbc5de198","study_id":"6197b3f67c2b5cd3b6d9596a","session_id":"619be32619886dee245cca72","condition":"full-information","relevant_dimensions":["wings","pattern"],"bee_group":{"antennae":"X","wings":"2","pattern":"D","legs":"X"},"action":"avoid","summary":"good-avoid","bonus":1.3800000000000008},{"rt":742.5,"stimulus":"\n                    <p><b>Action: <em>avoid</em></b></p>\n                    <p>This is the bee that you just saw.</p>\n                    <img src=\"bees-with-color/bee-B2DF.svg\" width=\"200\">\n                    <p><span class=\"greenText\">Good choice!</span>  This bee would have stung you.<br>Your bonus pay is unchanged, and remains at $1.26.</p>\n            ","response":0,"trial_type":"html-button-response","trial_index":124,"time_elapsed":700097,"internal_node_id":"0.0-4.0-1.58","subject_id":"60f69d6499cccd3fbc5de198","study_id":"6197b3f67c2b5cd3b6d9596a","session_id":"619be32619886dee245cca72","condition":"full-information","relevant_dimensions":["wings","pattern"],"bee_group":{"antennae":"X","wings":"2","pattern":"D","legs":"X"},"bonus":1.3800000000000008},{"rt":2519,"stimulus":"bees-with-color/bee-A2SF.svg","response":0,"trial_type":"image-button-response","trial_index":125,"time_elapsed":702617,"internal_node_id":"0.0-4.0-0.59","subject_id":"60f69d6499cccd3fbc5de198","study_id":"6197b3f67c2b5cd3b6d9596a","session_id":"619be32619886dee245cca72","condition":"full-information","relevant_dimensions":["wings","pattern"],"bee_group":{"antennae":"X","wings":"2","pattern":"D","legs":"X"},"action":"harvest","summary":"good-harvest","bonus":1.3800000000000008},{"rt":383.8000000715256,"stimulus":"\n                    <p><b>Action: <em>harvest</em></b></p>\n                    <p>This is the bee that you just saw.</p>\n                    <img src=\"bees-with-color/bee-A2SF.svg\" width=\"200\">\n                    <p><span class=\"greenText\"><b>Successful harvest!</b></span><br>Your pay has increased by $0.02. Your bonus pay is now $1.28.</p>\n            ","response":0,"trial_type":"html-button-response","trial_index":126,"time_elapsed":703002,"internal_node_id":"0.0-4.0-1.59","subject_id":"60f69d6499cccd3fbc5de198","study_id":"6197b3f67c2b5cd3b6d9596a","session_id":"619be32619886dee245cca72","condition":"full-information","relevant_dimensions":["wings","pattern"],"bee_group":{"antennae":"X","wings":"2","pattern":"D","legs":"X"},"bonus":1.3800000000000008},{"rt":798,"stimulus":"bees-with-color/bee-B1SM.svg","response":0,"trial_type":"image-button-response","trial_index":127,"time_elapsed":703801,"internal_node_id":"0.0-4.0-0.60","subject_id":"60f69d6499cccd3fbc5de198","study_id":"6197b3f67c2b5cd3b6d9596a","session_id":"619be32619886dee245cca72","condition":"full-information","relevant_dimensions":["wings","pattern"],"bee_group":{"antennae":"X","wings":"2","pattern":"D","legs":"X"},"action":"harvest","summary":"good-harvest","bonus":1.3800000000000008},{"rt":398.7999999523163,"stimulus":"\n                    <p><b>Action: <em>harvest</em></b></p>\n                    <p>This is the bee that you just saw.</p>\n                    <img src=\"bees-with-color/bee-B1SM.svg\" width=\"200\">\n                    <p><span class=\"greenText\"><b>Successful harvest!</b></span><br>Your pay has increased by $0.02. Your bonus pay is now $1.30.</p>\n            ","response":0,"trial_type":"html-button-response","trial_index":128,"time_elapsed":704201,"internal_node_id":"0.0-4.0-1.60","subject_id":"60f69d6499cccd3fbc5de198","study_id":"6197b3f67c2b5cd3b6d9596a","session_id":"619be32619886dee245cca72","condition":"full-information","relevant_dimensions":["wings","pattern"],"bee_group":{"antennae":"X","wings":"2","pattern":"D","legs":"X"},"bonus":1.3800000000000008},{"rt":542.7999999523163,"stimulus":"bees-with-color/bee-B2SM.svg","response":0,"trial_type":"image-button-response","trial_index":129,"time_elapsed":704745,"internal_node_id":"0.0-4.0-0.61","subject_id":"60f69d6499cccd3fbc5de198","study_id":"6197b3f67c2b5cd3b6d9596a","session_id":"619be32619886dee245cca72","condition":"full-information","relevant_dimensions":["wings","pattern"],"bee_group":{"antennae":"X","wings":"2","pattern":"D","legs":"X"},"action":"harvest","summary":"good-harvest","bonus":1.3800000000000008},{"rt":318.7999999523163,"stimulus":"\n                    <p><b>Action: <em>harvest</em></b></p>\n                    <p>This is the bee that you just saw.</p>\n                    <img src=\"bees-with-color/bee-B2SM.svg\" width=\"200\">\n                    <p><span class=\"greenText\"><b>Successful harvest!</b></span><br>Your pay has increased by $0.02. Your bonus pay is now $1.32.</p>\n            ","response":0,"trial_type":"html-button-response","trial_index":130,"time_elapsed":705065,"internal_node_id":"0.0-4.0-1.61","subject_id":"60f69d6499cccd3fbc5de198","study_id":"6197b3f67c2b5cd3b6d9596a","session_id":"619be32619886dee245cca72","condition":"full-information","relevant_dimensions":["wings","pattern"],"bee_group":{"antennae":"X","wings":"2","pattern":"D","legs":"X"},"bonus":1.3800000000000008},{"rt":1174.8000000715256,"stimulus":"bees-with-color/bee-B1DF.svg","response":0,"trial_type":"image-button-response","trial_index":131,"time_elapsed":706241,"internal_node_id":"0.0-4.0-0.62","subject_id":"60f69d6499cccd3fbc5de198","study_id":"6197b3f67c2b5cd3b6d9596a","session_id":"619be32619886dee245cca72","condition":"full-information","relevant_dimensions":["wings","pattern"],"bee_group":{"antennae":"X","wings":"2","pattern":"D","legs":"X"},"action":"harvest","summary":"good-harvest","bonus":1.3800000000000008},{"rt":350.89999997615814,"stimulus":"\n                    <p><b>Action: <em>harvest</em></b></p>\n                    <p>This is the bee that you just saw.</p>\n                    <img src=\"bees-with-color/bee-B1DF.svg\" width=\"200\">\n                    <p><span class=\"greenText\"><b>Successful harvest!</b></span><br>Your pay has increased by $0.02. Your bonus pay is now $1.34.</p>\n            ","response":0,"trial_type":"html-button-response","trial_index":132,"time_elapsed":706593,"internal_node_id":"0.0-4.0-1.62","subject_id":"60f69d6499cccd3fbc5de198","study_id":"6197b3f67c2b5cd3b6d9596a","session_id":"619be32619886dee245cca72","condition":"full-information","relevant_dimensions":["wings","pattern"],"bee_group":{"antennae":"X","wings":"2","pattern":"D","legs":"X"},"bonus":1.3800000000000008},{"rt":903.8000000715256,"stimulus":"bees-with-color/bee-B1DM.svg","response":0,"trial_type":"image-button-response","trial_index":133,"time_elapsed":707498,"internal_node_id":"0.0-4.0-0.63","subject_id":"60f69d6499cccd3fbc5de198","study_id":"6197b3f67c2b5cd3b6d9596a","session_id":"619be32619886dee245cca72","condition":"full-information","relevant_dimensions":["wings","pattern"],"bee_group":{"antennae":"X","wings":"2","pattern":"D","legs":"X"},"action":"harvest","summary":"good-harvest","bonus":1.3800000000000008},{"rt":390,"stimulus":"\n                    <p><b>Action: <em>harvest</em></b></p>\n                    <p>This is the bee that you just saw.</p>\n                    <img src=\"bees-with-color/bee-B1DM.svg\" width=\"200\">\n                    <p><span class=\"greenText\"><b>Successful harvest!</b></span><br>Your pay has increased by $0.02. Your bonus pay is now $1.36.</p>\n            ","response":0,"trial_type":"html-button-response","trial_index":134,"time_elapsed":707889,"internal_node_id":"0.0-4.0-1.63","subject_id":"60f69d6499cccd3fbc5de198","study_id":"6197b3f67c2b5cd3b6d9596a","session_id":"619be32619886dee245cca72","condition":"full-information","relevant_dimensions":["wings","pattern"],"bee_group":{"antennae":"X","wings":"2","pattern":"D","legs":"X"},"bonus":1.3800000000000008},{"rt":46858.09999990463,"stimulus":"You have completed the first part of this experiment.<br><br>You will now begin a shorter second part, in which you will receive no feedback.<br>The same rules regarding bonus pay apply.<br><br>Press any key to begin.","response":"arrowright","trial_type":"html-keyboard-response","trial_index":135,"time_elapsed":754748,"internal_node_id":"0.0-5.0","subject_id":"60f69d6499cccd3fbc5de198","study_id":"6197b3f67c2b5cd3b6d9596a","session_id":"619be32619886dee245cca72","condition":"full-information","relevant_dimensions":["wings","pattern"],"bee_group":{"antennae":"X","wings":"2","pattern":"D","legs":"X"},"bonus":1.3800000000000008},{"rt":30485.800000071526,"stimulus":"bees-with-color/bee-A1SF.svg","response":0,"trial_type":"image-button-response","trial_index":136,"time_elapsed":785241,"internal_node_id":"0.0-6.0-0.0","subject_id":"60f69d6499cccd3fbc5de198","study_id":"6197b3f67c2b5cd3b6d9596a","session_id":"619be32619886dee245cca72","condition":"full-information","relevant_dimensions":["wings","pattern"],"bee_group":{"antennae":"X","wings":"2","pattern":"D","legs":"X"},"bonus":1.3800000000000008},{"rt":1942.6000000238419,"stimulus":"bees-with-color/bee-B2DF.svg","response":1,"trial_type":"image-button-response","trial_index":137,"time_elapsed":787185,"internal_node_id":"0.0-6.0-0.1","subject_id":"60f69d6499cccd3fbc5de198","study_id":"6197b3f67c2b5cd3b6d9596a","session_id":"619be32619886dee245cca72","condition":"full-information","relevant_dimensions":["wings","pattern"],"bee_group":{"antennae":"X","wings":"2","pattern":"D","legs":"X"},"bonus":1.3800000000000008},{"rt":126.60000002384186,"stimulus":"bees-with-color/bee-B2SM.svg","response":1,"trial_type":"image-button-response","trial_index":138,"time_elapsed":787313,"internal_node_id":"0.0-6.0-0.2","subject_id":"60f69d6499cccd3fbc5de198","study_id":"6197b3f67c2b5cd3b6d9596a","session_id":"619be32619886dee245cca72","condition":"full-information","relevant_dimensions":["wings","pattern"],"bee_group":{"antennae":"X","wings":"2","pattern":"D","legs":"X"},"bonus":1.3800000000000008},{"rt":134.80000007152557,"stimulus":"bees-with-color/bee-B1DF.svg","response":1,"trial_type":"image-button-response","trial_index":139,"time_elapsed":787449,"internal_node_id":"0.0-6.0-0.3","subject_id":"60f69d6499cccd3fbc5de198","study_id":"6197b3f67c2b5cd3b6d9596a","session_id":"619be32619886dee245cca72","condition":"full-information","relevant_dimensions":["wings","pattern"],"bee_group":{"antennae":"X","wings":"2","pattern":"D","legs":"X"},"bonus":1.3800000000000008},{"rt":120,"stimulus":"bees-with-color/bee-B2DM.svg","response":1,"trial_type":"image-button-response","trial_index":140,"time_elapsed":787570,"internal_node_id":"0.0-6.0-0.4","subject_id":"60f69d6499cccd3fbc5de198","study_id":"6197b3f67c2b5cd3b6d9596a","session_id":"619be32619886dee245cca72","condition":"full-information","relevant_dimensions":["wings","pattern"],"bee_group":{"antennae":"X","wings":"2","pattern":"D","legs":"X"},"bonus":1.3800000000000008},{"rt":116.89999997615814,"stimulus":"bees-with-color/bee-A1DF.svg","response":1,"trial_type":"image-button-response","trial_index":141,"time_elapsed":787689,"internal_node_id":"0.0-6.0-0.5","subject_id":"60f69d6499cccd3fbc5de198","study_id":"6197b3f67c2b5cd3b6d9596a","session_id":"619be32619886dee245cca72","condition":"full-information","relevant_dimensions":["wings","pattern"],"bee_group":{"antennae":"X","wings":"2","pattern":"D","legs":"X"},"bonus":1.3800000000000008},{"rt":118.90000009536743,"stimulus":"bees-with-color/bee-B1SF.svg","response":1,"trial_type":"image-button-response","trial_index":142,"time_elapsed":787809,"internal_node_id":"0.0-6.0-0.6","subject_id":"60f69d6499cccd3fbc5de198","study_id":"6197b3f67c2b5cd3b6d9596a","session_id":"619be32619886dee245cca72","condition":"full-information","relevant_dimensions":["wings","pattern"],"bee_group":{"antennae":"X","wings":"2","pattern":"D","legs":"X"},"bonus":1.3800000000000008},{"rt":127.10000002384186,"stimulus":"bees-with-color/bee-A2SF.svg","response":1,"trial_type":"image-button-response","trial_index":143,"time_elapsed":787937,"internal_node_id":"0.0-6.0-0.7","subject_id":"60f69d6499cccd3fbc5de198","study_id":"6197b3f67c2b5cd3b6d9596a","session_id":"619be32619886dee245cca72","condition":"full-information","relevant_dimensions":["wings","pattern"],"bee_group":{"antennae":"X","wings":"2","pattern":"D","legs":"X"},"bonus":1.3800000000000008},{"rt":118.30000007152557,"stimulus":"bees-with-color/bee-A2DM.svg","response":1,"trial_type":"image-button-response","trial_index":144,"time_elapsed":788057,"internal_node_id":"0.0-6.0-0.8","subject_id":"60f69d6499cccd3fbc5de198","study_id":"6197b3f67c2b5cd3b6d9596a","session_id":"619be32619886dee245cca72","condition":"full-information","relevant_dimensions":["wings","pattern"],"bee_group":{"antennae":"X","wings":"2","pattern":"D","legs":"X"},"bonus":1.3800000000000008},{"rt":118.60000002384186,"stimulus":"bees-with-color/bee-A1DM.svg","response":1,"trial_type":"image-button-response","trial_index":145,"time_elapsed":788177,"internal_node_id":"0.0-6.0-0.9","subject_id":"60f69d6499cccd3fbc5de198","study_id":"6197b3f67c2b5cd3b6d9596a","session_id":"619be32619886dee245cca72","condition":"full-information","relevant_dimensions":["wings","pattern"],"bee_group":{"antennae":"X","wings":"2","pattern":"D","legs":"X"},"bonus":1.3800000000000008},{"rt":126.80000007152557,"stimulus":"bees-with-color/bee-B1SM.svg","response":1,"trial_type":"image-button-response","trial_index":146,"time_elapsed":788305,"internal_node_id":"0.0-6.0-0.10","subject_id":"60f69d6499cccd3fbc5de198","study_id":"6197b3f67c2b5cd3b6d9596a","session_id":"619be32619886dee245cca72","condition":"full-information","relevant_dimensions":["wings","pattern"],"bee_group":{"antennae":"X","wings":"2","pattern":"D","legs":"X"},"bonus":1.3800000000000008},{"rt":126.69999992847443,"stimulus":"bees-with-color/bee-B1DM.svg","response":1,"trial_type":"image-button-response","trial_index":147,"time_elapsed":788433,"internal_node_id":"0.0-6.0-0.11","subject_id":"60f69d6499cccd3fbc5de198","study_id":"6197b3f67c2b5cd3b6d9596a","session_id":"619be32619886dee245cca72","condition":"full-information","relevant_dimensions":["wings","pattern"],"bee_group":{"antennae":"X","wings":"2","pattern":"D","legs":"X"},"bonus":1.3800000000000008},{"rt":117.70000004768372,"stimulus":"bees-with-color/bee-A1SM.svg","response":1,"trial_type":"image-button-response","trial_index":148,"time_elapsed":788553,"internal_node_id":"0.0-6.0-0.12","subject_id":"60f69d6499cccd3fbc5de198","study_id":"6197b3f67c2b5cd3b6d9596a","session_id":"619be32619886dee245cca72","condition":"full-information","relevant_dimensions":["wings","pattern"],"bee_group":{"antennae":"X","wings":"2","pattern":"D","legs":"X"},"bonus":1.3800000000000008},{"rt":134.60000002384186,"stimulus":"bees-with-color/bee-A2DF.svg","response":1,"trial_type":"image-button-response","trial_index":149,"time_elapsed":788689,"internal_node_id":"0.0-6.0-0.13","subject_id":"60f69d6499cccd3fbc5de198","study_id":"6197b3f67c2b5cd3b6d9596a","session_id":"619be32619886dee245cca72","condition":"full-information","relevant_dimensions":["wings","pattern"],"bee_group":{"antennae":"X","wings":"2","pattern":"D","legs":"X"},"bonus":1.3800000000000008},{"rt":118.80000007152557,"stimulus":"bees-with-color/bee-A2SM.svg","response":1,"trial_type":"image-button-response","trial_index":150,"time_elapsed":788809,"internal_node_id":"0.0-6.0-0.14","subject_id":"60f69d6499cccd3fbc5de198","study_id":"6197b3f67c2b5cd3b6d9596a","session_id":"619be32619886dee245cca72","condition":"full-information","relevant_dimensions":["wings","pattern"],"bee_group":{"antennae":"X","wings":"2","pattern":"D","legs":"X"},"bonus":1.3800000000000008},{"rt":126.5,"stimulus":"bees-with-color/bee-B2SF.svg","response":1,"trial_type":"image-button-response","trial_index":151,"time_elapsed":788937,"internal_node_id":"0.0-6.0-0.15","subject_id":"60f69d6499cccd3fbc5de198","study_id":"6197b3f67c2b5cd3b6d9596a","session_id":"619be32619886dee245cca72","condition":"full-information","relevant_dimensions":["wings","pattern"],"bee_group":{"antennae":"X","wings":"2","pattern":"D","legs":"X"},"bonus":1.3800000000000008},{"rt":127.10000002384186,"stimulus":"bees-with-color/bee-B1DM.svg","response":1,"trial_type":"image-button-response","trial_index":152,"time_elapsed":789065,"internal_node_id":"0.0-6.0-0.16","subject_id":"60f69d6499cccd3fbc5de198","study_id":"6197b3f67c2b5cd3b6d9596a","session_id":"619be32619886dee245cca72","condition":"full-information","relevant_dimensions":["wings","pattern"],"bee_group":{"antennae":"X","wings":"2","pattern":"D","legs":"X"},"bonus":1.3800000000000008},{"rt":126.60000002384186,"stimulus":"bees-with-color/bee-A2DM.svg","response":1,"trial_type":"image-button-response","trial_index":153,"time_elapsed":789193,"internal_node_id":"0.0-6.0-0.17","subject_id":"60f69d6499cccd3fbc5de198","study_id":"6197b3f67c2b5cd3b6d9596a","session_id":"619be32619886dee245cca72","condition":"full-information","relevant_dimensions":["wings","pattern"],"bee_group":{"antennae":"X","wings":"2","pattern":"D","legs":"X"},"bonus":1.3800000000000008},{"rt":135.10000002384186,"stimulus":"bees-with-color/bee-B1DF.svg","response":1,"trial_type":"image-button-response","trial_index":154,"time_elapsed":789329,"internal_node_id":"0.0-6.0-0.18","subject_id":"60f69d6499cccd3fbc5de198","study_id":"6197b3f67c2b5cd3b6d9596a","session_id":"619be32619886dee245cca72","condition":"full-information","relevant_dimensions":["wings","pattern"],"bee_group":{"antennae":"X","wings":"2","pattern":"D","legs":"X"},"bonus":1.3800000000000008},{"rt":102.79999995231628,"stimulus":"bees-with-color/bee-A1DF.svg","response":1,"trial_type":"image-button-response","trial_index":155,"time_elapsed":789433,"internal_node_id":"0.0-6.0-0.19","subject_id":"60f69d6499cccd3fbc5de198","study_id":"6197b3f67c2b5cd3b6d9596a","session_id":"619be32619886dee245cca72","condition":"full-information","relevant_dimensions":["wings","pattern"],"bee_group":{"antennae":"X","wings":"2","pattern":"D","legs":"X"},"bonus":1.3800000000000008},{"rt":135,"stimulus":"bees-with-color/bee-B2DM.svg","response":1,"trial_type":"image-button-response","trial_index":156,"time_elapsed":789569,"internal_node_id":"0.0-6.0-0.20","subject_id":"60f69d6499cccd3fbc5de198","study_id":"6197b3f67c2b5cd3b6d9596a","session_id":"619be32619886dee245cca72","condition":"full-information","relevant_dimensions":["wings","pattern"],"bee_group":{"antennae":"X","wings":"2","pattern":"D","legs":"X"},"bonus":1.3800000000000008},{"rt":119,"stimulus":"bees-with-color/bee-B2SM.svg","response":1,"trial_type":"image-button-response","trial_index":157,"time_elapsed":789689,"internal_node_id":"0.0-6.0-0.21","subject_id