[{"success":true,"trial_type":"fullscreen","trial_index":0,"time_elapsed":7498,"internal_node_id":"0.0-0.0","subject_id":"616987b7d5bd3be0ecf4310e","study_id":"6197b3f67c2b5cd3b6d9596a","session_id":"619be3218b9b69f2f085dbda","condition":"contingent","relevant_dimensions":["wings","pattern"],"bee_group":{"antennae":"X","wings":"1","pattern":"D","legs":"X"},"bonus":0.6000000000000005},{"success":true,"timeout":false,"failed_images":[],"failed_audio":[],"failed_video":[],"trial_type":"preload","trial_index":1,"time_elapsed":9258,"internal_node_id":"0.0-1.0","subject_id":"616987b7d5bd3be0ecf4310e","study_id":"6197b3f67c2b5cd3b6d9596a","session_id":"619be3218b9b69f2f085dbda","condition":"contingent","relevant_dimensions":["wings","pattern"],"bee_group":{"antennae":"X","wings":"1","pattern":"D","legs":"X"},"bonus":0.6000000000000005},{"rt":1568.199999999255,"stimulus":"Welcome! Press any key to begin.","response":"arrowright","trial_type":"html-keyboard-response","trial_index":2,"time_elapsed":10827,"internal_node_id":"0.0-2.0","subject_id":"616987b7d5bd3be0ecf4310e","study_id":"6197b3f67c2b5cd3b6d9596a","session_id":"619be3218b9b69f2f085dbda","condition":"contingent","relevant_dimensions":["wings","pattern"],"bee_group":{"antennae":"X","wings":"1","pattern":"D","legs":"X"},"bonus":0.6000000000000005},{"view_history":[{"page_index":0,"viewing_time":4775.300000000745},{"page_index":1,"viewing_time":8595.900000002235},{"page_index":2,"viewing_time":1414},{"page_index":3,"viewing_time":3962.89999999851},{"page_index":4,"viewing_time":4570.10000000149},{"page_index":5,"viewing_time":2110.199999999255},{"page_index":6,"viewing_time":3514.800000000745},{"page_index":7,"viewing_time":3655},{"page_index":8,"viewing_time":3160},{"page_index":9,"viewing_time":3240.099999997765},{"page_index":10,"viewing_time":2815.900000002235},{"page_index":11,"viewing_time":10291.79999999702},{"page_index":12,"viewing_time":6100.10000000149},{"page_index":13,"viewing_time":1149.199999999255},{"page_index":14,"viewing_time":1915.9000000022352}],"rt":61271.70000000298,"trial_type":"instructions","trial_index":3,"time_elapsed":72098,"internal_node_id":"0.0-3.0-0.0","subject_id":"616987b7d5bd3be0ecf4310e","study_id":"6197b3f67c2b5cd3b6d9596a","session_id":"619be3218b9b69f2f085dbda","condition":"contingent","relevant_dimensions":["wings","pattern"],"bee_group":{"antennae":"X","wings":"1","pattern":"D","legs":"X"},"bonus":0.6000000000000005},{"rt":9484.400000002235,"response":{"Q0":["Two or six legs","Stripes or spots on body","Single or double wings","Antennae or no antennae"]},"question_order":[0],"trial_type":"survey-multi-select","trial_index":4,"time_elapsed":81586,"internal_node_id":"0.0-3.0-1.0","subject_id":"616987b7d5bd3be0ecf4310e","study_id":"6197b3f67c2b5cd3b6d9596a","session_id":"619be3218b9b69f2f085dbda","condition":"contingent","relevant_dimensions":["wings","pattern"],"bee_group":{"antennae":"X","wings":"1","pattern":"D","legs":"X"},"correct":true,"bonus":0.6000000000000005},{"rt":25875.699999999255,"response":{"Q1":"No.","Q2":"Based on the four features of the bee.","Q3":"You do not learn if it was friendly or dangerous, and do not alter your bonus."},"question_order":[0,1,2],"trial_type":"survey-multi-choice","trial_index":5,"time_elapsed":107465,"internal_node_id":"0.0-3.0-2.0","subject_id":"616987b7d5bd3be0ecf4310e","study_id":"6197b3f67c2b5cd3b6d9596a","session_id":"619be3218b9b69f2f085dbda","condition":"contingent","relevant_dimensions":["wings","pattern"],"bee_group":{"antennae":"X","wings":"1","pattern":"D","legs":"X"},"correct":true,"bonus":0.6000000000000005},{"rt":1706.2000000029802,"stimulus":"<p>Congrats, you got everything right<br>When you're ready, click the button below to continue to the experiment.</p>","response":0,"trial_type":"html-button-response","trial_index":6,"time_elapsed":109175,"internal_node_id":"0.0-3.0-3.0","subject_id":"616987b7d5bd3be0ecf4310e","study_id":"6197b3f67c2b5cd3b6d9596a","session_id":"619be3218b9b69f2f085dbda","condition":"contingent","relevant_dimensions":["wings","pattern"],"bee_group":{"antennae":"X","wings":"1","pattern":"D","legs":"X"},"bonus":0.6000000000000005},{"rt":3297.300000000745,"stimulus":"bees-with-color/bee-B1DF.svg","response":1,"trial_type":"image-button-response","trial_index":7,"time_elapsed":112474,"internal_node_id":"0.0-4.0-0.0","subject_id":"616987b7d5bd3be0ecf4310e","study_id":"6197b3f67c2b5cd3b6d9596a","session_id":"619be3218b9b69f2f085dbda","condition":"contingent","relevant_dimensions":["wings","pattern"],"bee_group":{"antennae":"X","wings":"1","pattern":"D","legs":"X"},"action":"avoid","summary":"good-avoid","bonus":0.6000000000000005},{"rt":3644.199999999255,"stimulus":"\n                    <p><b>Action: <em>avoid</em></b></p>\n                    <p>This is the bee that you just saw.</p>\n                    <img src=\"bees-with-color/bee-B1DF.svg\" width=\"200\">\n                    <p><br>Your bonus pay is unchanged, and remains at $0.54.</p>\n            ","response":0,"trial_type":"html-button-response","trial_index":8,"time_elapsed":116121,"internal_node_id":"0.0-4.0-1.0","subject_id":"616987b7d5bd3be0ecf4310e","study_id":"6197b3f67c2b5cd3b6d9596a","session_id":"619be3218b9b69f2f085dbda","condition":"contingent","relevant_dimensions":["wings","pattern"],"bee_group":{"antennae":"X","wings":"1","pattern":"D","legs":"X"},"bonus":0.6000000000000005},{"rt":2860.60000000149,"stimulus":"bees-with-color/bee-B1SF.svg","response":0,"trial_type":"image-button-response","trial_index":9,"time_elapsed":118983,"internal_node_id":"0.0-4.0-0.1","subject_id":"616987b7d5bd3be0ecf4310e","study_id":"6197b3f67c2b5cd3b6d9596a","session_id":"619be3218b9b69f2f085dbda","condition":"contingent","relevant_dimensions":["wings","pattern"],"bee_group":{"antennae":"X","wings":"1","pattern":"D","legs":"X"},"action":"harvest","summary":"good-harvest","bonus":0.6000000000000005},{"rt":1591.5,"stimulus":"\n                    <p><b>Action: <em>harvest</em></b></p>\n                    <p>This is the bee that you just saw.</p>\n                    <img src=\"bees-with-color/bee-B1SF.svg\" width=\"200\">\n                    <p><span class=\"greenText\"><b>Successful harvest!</b></span><br>Your pay has increased by $0.02. Your bonus pay is now $0.56.</p>\n            ","response":0,"trial_type":"html-button-response","trial_index":10,"time_elapsed":120576,"internal_node_id":"0.0-4.0-1.1","subject_id":"616987b7d5bd3be0ecf4310e","study_id":"6197b3f67c2b5cd3b6d9596a","session_id":"619be3218b9b69f2f085dbda","condition":"contingent","relevant_dimensions":["wings","pattern"],"bee_group":{"antennae":"X","wings":"1","pattern":"D","legs":"X"},"bonus":0.6000000000000005},{"rt":2803.7000000029802,"stimulus":"bees-with-color/bee-B2SF.svg","response":1,"trial_type":"image-button-response","trial_index":11,"time_elapsed":123381,"internal_node_id":"0.0-4.0-0.2","subject_id":"616987b7d5bd3be0ecf4310e","study_id":"6197b3f67c2b5cd3b6d9596a","session_id":"619be3218b9b69f2f085dbda","condition":"contingent","relevant_dimensions":["wings","pattern"],"bee_group":{"antennae":"X","wings":"1","pattern":"D","legs":"X"},"action":"avoid","summary":"bad-avoid","bonus":0.6000000000000005},{"rt":850,"stimulus":"\n                    <p><b>Action: <em>avoid</em></b></p>\n                    <p>This is the bee that you just saw.</p>\n                    <img src=\"bees-with-color/bee-B2SF.svg\" width=\"200\">\n                    <p><br>Your bonus pay is unchanged, and remains at $0.56.</p>\n            ","response":0,"trial_type":"html-button-response","trial_index":12,"time_elapsed":124232,"internal_node_id":"0.0-4.0-1.2","subject_id":"616987b7d5bd3be0ecf4310e","study_id":"6197b3f67c2b5cd3b6d9596a","session_id":"619be3218b9b69f2f085dbda","condition":"contingent","relevant_dimensions":["wings","pattern"],"bee_group":{"antennae":"X","wings":"1","pattern":"D","legs":"X"},"bonus":0.6000000000000005},{"rt":2109.5,"stimulus":"bees-with-color/bee-A2DM.svg","response":1,"trial_type":"image-button-response","trial_index":13,"time_elapsed":126343,"internal_node_id":"0.0-4.0-0.3","subject_id":"616987b7d5bd3be0ecf4310e","study_id":"6197b3f67c2b5cd3b6d9596a","session_id":"619be3218b9b69f2f085dbda","condition":"contingent","relevant_dimensions":["wings","pattern"],"bee_group":{"antennae":"X","wings":"1","pattern":"D","legs":"X"},"action":"avoid","summary":"bad-avoid","bonus":0.6000000000000005},{"rt":731,"stimulus":"\n                    <p><b>Action: <em>avoid</em></b></p>\n                    <p>This is the bee that you just saw.</p>\n                    <img src=\"bees-with-color/bee-A2DM.svg\" width=\"200\">\n                    <p><br>Your bonus pay is unchanged, and remains at $0.56.</p>\n            ","response":0,"trial_type":"html-button-response","trial_index":14,"time_elapsed":127075,"internal_node_id":"0.0-4.0-1.3","subject_id":"616987b7d5bd3be0ecf4310e","study_id":"6197b3f67c2b5cd3b6d9596a","session_id":"619be3218b9b69f2f085dbda","condition":"contingent","relevant_dimensions":["wings","pattern"],"bee_group":{"antennae":"X","wings":"1","pattern":"D","legs":"X"},"bonus":0.6000000000000005},{"rt":1512.8999999985099,"stimulus":"bees-with-color/bee-A1DF.svg","response":0,"trial_type":"image-button-response","trial_index":15,"time_elapsed":128589,"internal_node_id":"0.0-4.0-0.4","subject_id":"616987b7d5bd3be0ecf4310e","study_id":"6197b3f67c2b5cd3b6d9596a","session_id":"619be3218b9b69f2f085dbda","condition":"contingent","relevant_dimensions":["wings","pattern"],"bee_group":{"antennae":"X","wings":"1","pattern":"D","legs":"X"},"action":"harvest","summary":"bad-harvest","bonus":0.6000000000000005},{"rt":1527.7999999970198,"stimulus":"\n                    <p><b>Action: <em>harvest</em></b></p>\n                    <p>This is the bee that you just saw.</p>\n                    <img src=\"bees-with-color/bee-A1DF.svg\" width=\"200\">\n                    <p><span class=\"redText\">Bad choice, the bee was angry.</span><br><b>You have been stung!</b><br>Your pay has been decreased by $0.10. Your bonus pay is now $0.46.</p>\n            ","response":0,"trial_type":"html-button-response","trial_index":16,"time_elapsed":130118,"internal_node_id":"0.0-4.0-1.4","subject_id":"616987b7d5bd3be0ecf4310e","study_id":"6197b3f67c2b5cd3b6d9596a","session_id":"619be3218b9b69f2f085dbda","condition":"contingent","relevant_dimensions":["wings","pattern"],"bee_group":{"antennae":"X","wings":"1","pattern":"D","legs":"X"},"bonus":0.6000000000000005},{"rt":971.6999999992549,"stimulus":"bees-with-color/bee-A2SM.svg","response":1,"trial_type":"image-button-response","trial_index":17,"time_elapsed":131091,"internal_node_id":"0.0-4.0-0.5","subject_id":"616987b7d5bd3be0ecf4310e","study_id":"6197b3f67c2b5cd3b6d9596a","session_id":"619be3218b9b69f2f085dbda","condition":"contingent","relevant_dimensions":["wings","pattern"],"bee_group":{"antennae":"X","wings":"1","pattern":"D","legs":"X"},"action":"avoid","summary":"bad-avoid","bonus":0.6000000000000005},{"rt":747.8999999985099,"stimulus":"\n                    <p><b>Action: <em>avoid</em></b></p>\n                    <p>This is the bee that you just saw.</p>\n                    <img src=\"bees-with-color/bee-A2SM.svg\" width=\"200\">\n                    <p><br>Your bonus pay is unchanged, and remains at $0.46.</p>\n            ","response":0,"trial_type":"html-button-response","trial_index":18,"time_elapsed":131840,"internal_node_id":"0.0-4.0-1.5","subject_id":"616987b7d5bd3be0ecf4310e","study_id":"6197b3f67c2b5cd3b6d9596a","session_id":"619be3218b9b69f2f085dbda","condition":"contingent","relevant_dimensions":["wings","pattern"],"bee_group":{"antennae":"X","wings":"1","pattern":"D","legs":"X"},"bonus":0.6000000000000005},{"rt":1226.699999999255,"stimulus":"bees-with-color/bee-B2SM.svg","response":1,"trial_type":"image-button-response","trial_index":19,"time_elapsed":133068,"internal_node_id":"0.0-4.0-0.6","subject_id":"616987b7d5bd3be0ecf4310e","study_id":"6197b3f67c2b5cd3b6d9596a","session_id":"619be3218b9b69f2f085dbda","condition":"contingent","relevant_dimensions":["wings","pattern"],"bee_group":{"antennae":"X","wings":"1","pattern":"D","legs":"X"},"action":"avoid","summary":"bad-avoid","bonus":0.6000000000000005},{"rt":720.0999999977648,"stimulus":"\n                    <p><b>Action: <em>avoid</em></b></p>\n                    <p>This is the bee that you just saw.</p>\n                    <img src=\"bees-with-color/bee-B2SM.svg\" width=\"200\">\n                    <p><br>Your bonus pay is unchanged, and remains at $0.46.</p>\n            ","response":0,"trial_type":"html-button-response","trial_index":20,"time_elapsed":133789,"internal_node_id":"0.0-4.0-1.6","subject_id":"616987b7d5bd3be0ecf4310e","study_id":"6197b3f67c2b5cd3b6d9596a","session_id":"619be3218b9b69f2f085dbda","condition":"contingent","relevant_dimensions":["wings","pattern"],"bee_group":{"antennae":"X","wings":"1","pattern":"D","legs":"X"},"bonus":0.6000000000000005},{"rt":994.3000000007451,"stimulus":"bees-with-color/bee-B2DM.svg","response":1,"trial_type":"image-button-response","trial_index":21,"time_elapsed":134785,"internal_node_id":"0.0-4.0-0.7","subject_id":"616987b7d5bd3be0ecf4310e","study_id":"6197b3f67c2b5cd3b6d9596a","session_id":"619be3218b9b69f2f085dbda","condition":"contingent","relevant_dimensions":["wings","pattern"],"bee_group":{"antennae":"X","wings":"1","pattern":"D","legs":"X"},"action":"avoid","summary":"bad-avoid","bonus":0.6000000000000005},{"rt":406.8999999985099,"stimulus":"\n                    <p><b>Action: <em>avoid</em></b></p>\n                    <p>This is the bee that you just saw.</p>\n                    <img src=\"bees-with-color/bee-B2DM.svg\" width=\"200\">\n                    <p><br>Your bonus pay is unchanged, and remains at $0.46.</p>\n            ","response":0,"trial_type":"html-button-response","trial_index":22,"time_elapsed":135193,"internal_node_id":"0.0-4.0-1.7","subject_id":"616987b7d5bd3be0ecf4310e","study_id":"6197b3f67c2b5cd3b6d9596a","session_id":"619be3218b9b69f2f085dbda","condition":"contingent","relevant_dimensions":["wings","pattern"],"bee_group":{"antennae":"X","wings":"1","pattern":"D","legs":"X"},"bonus":0.6000000000000005},{"rt":885.9000000022352,"stimulus":"bees-with-color/bee-A2DF.svg","response":1,"trial_type":"image-button-response","trial_index":23,"time_elapsed":136080,"internal_node_id":"0.0-4.0-0.8","subject_id":"616987b7d5bd3be0ecf4310e","study_id":"6197b3f67c2b5cd3b6d9596a","session_id":"619be3218b9b69f2f085dbda","condition":"contingent","relevant_dimensions":["wings","pattern"],"bee_group":{"antennae":"X","wings":"1","pattern":"D","legs":"X"},"action":"avoid","summary":"bad-avoid","bonus":0.6000000000000005},{"rt":527.8000000007451,"stimulus":"\n                    <p><b>Action: <em>avoid</em></b></p>\n                    <p>This is the bee that you just saw.</p>\n                    <img src=\"bees-with-color/bee-A2DF.svg\" width=\"200\">\n                    <p><br>Your bonus pay is unchanged, and remains at $0.46.</p>\n            ","response":0,"trial_type":"html-button-response","trial_index":24,"time_elapsed":136609,"internal_node_id":"0.0-4.0-1.8","subject_id":"616987b7d5bd3be0ecf4310e","study_id":"6197b3f67c2b5cd3b6d9596a","session_id":"619be3218b9b69f2f085dbda","condition":"contingent","relevant_dimensions":["wings","pattern"],"bee_group":{"antennae":"X","wings":"1","pattern":"D","legs":"X"},"bonus":0.6000000000000005},{"rt":2651.89999999851,"stimulus":"bees-with-color/bee-B1DM.svg","response":1,"trial_type":"image-button-response","trial_index":25,"time_elapsed":139262,"internal_node_id":"0.0-4.0-0.9","subject_id":"616987b7d5bd3be0ecf4310e","study_id":"6197b3f67c2b5cd3b6d9596a","session_id":"619be3218b9b69f2f085dbda","condition":"contingent","relevant_dimensions":["wings","pattern"],"bee_group":{"antennae":"X","wings":"1","pattern":"D","legs":"X"},"action":"avoid","summary":"good-avoid","bonus":0.6000000000000005},{"rt":649.9000000022352,"stimulus":"\n                    <p><b>Action: <em>avoid</em></b></p>\n                    <p>This is the bee that you just saw.</p>\n                    <img src=\"bees-with-color/bee-B1DM.svg\" width=\"200\">\n                    <p><br>Your bonus pay is unchanged, and remains at $0.46.</p>\n            ","response":0,"trial_type":"html-button-response","trial_index":26,"time_elapsed":139913,"internal_node_id":"0.0-4.0-1.9","subject_id":"616987b7d5bd3be0ecf4310e","study_id":"6197b3f67c2b5cd3b6d9596a","session_id":"619be3218b9b69f2f085dbda","condition":"contingent","relevant_dimensions":["wings","pattern"],"bee_group":{"antennae":"X","wings":"1","pattern":"D","legs":"X"},"bonus":0.6000000000000005},{"rt":2040.6000000014901,"stimulus":"bees-with-color/bee-A1SM.svg","response":0,"trial_type":"image-button-response","trial_index":27,"time_elapsed":141955,"internal_node_id":"0.0-4.0-0.10","subject_id":"616987b7d5bd3be0ecf4310e","study_id":"6197b3f67c2b5cd3b6d9596a","session_id":"619be3218b9b69f2f085dbda","condition":"contingent","relevant_dimensions":["wings","pattern"],"bee_group":{"antennae":"X","wings":"1","pattern":"D","legs":"X"},"action":"harvest","summary":"good-harvest","bonus":0.6000000000000005},{"rt":1181.7000000029802,"stimulus":"\n                    <p><b>Action: <em>harvest</em></b></p>\n                    <p>This is the bee that you just saw.</p>\n                    <img src=\"bees-with-color/bee-A1SM.svg\" width=\"200\">\n                    <p><span class=\"greenText\"><b>Successful harvest!</b></span><br>Your pay has increased by $0.02. Your bonus pay is now $0.48.</p>\n            ","response":0,"trial_type":"html-button-response","trial_index":28,"time_elapsed":143138,"internal_node_id":"0.0-4.0-1.10","subject_id":"616987b7d5bd3be0ecf4310e","study_id":"6197b3f67c2b5cd3b6d9596a","session_id":"619be3218b9b69f2f085dbda","condition":"contingent","relevant_dimensions":["wings","pattern"],"bee_group":{"antennae":"X","wings":"1","pattern":"D","legs":"X"},"bonus":0.6000000000000005},{"rt":894.6999999992549,"stimulus":"bees-with-color/bee-A2SF.svg","response":1,"trial_type":"image-button-response","trial_index":29,"time_elapsed":144034,"internal_node_id":"0.0-4.0-0.11","subject_id":"616987b7d5bd3be0ecf4310e","study_id":"6197b3f67c2b5cd3b6d9596a","session_id":"619be3218b9b69f2f085dbda","condition":"contingent","relevant_dimensions":["wings","pattern"],"bee_group":{"antennae":"X","wings":"1","pattern":"D","legs":"X"},"action":"avoid","summary":"bad-avoid","bonus":0.6000000000000005},{"rt":419.8999999985099,"stimulus":"\n                    <p><b>Action: <em>avoid</em></b></p>\n                    <p>This is the bee that you just saw.</p>\n                    <img src=\"bees-with-color/bee-A2SF.svg\" width=\"200\">\n                    <p><br>Your bonus pay is unchanged, and remains at $0.48.</p>\n            ","response":0,"trial_type":"html-button-response","trial_index":30,"time_elapsed":144455,"internal_node_id":"0.0-4.0-1.11","subject_id":"616987b7d5bd3be0ecf4310e","study_id":"6197b3f67c2b5cd3b6d9596a","session_id":"619be3218b9b69f2f085dbda","condition":"contingent","relevant_dimensions":["wings","pattern"],"bee_group":{"antennae":"X","wings":"1","pattern":"D","legs":"X"},"bonus":0.6000000000000005},{"rt":1080.1000000014901,"stimulus":"bees-with-color/bee-A1DM.svg","response":0,"trial_type":"image-button-response","trial_index":31,"time_elapsed":145536,"internal_node_id":"0.0-4.0-0.12","subject_id":"616987b7d5bd3be0ecf4310e","study_id":"6197b3f67c2b5cd3b6d9596a","session_id":"619be3218b9b69f2f085dbda","condition":"contingent","relevant_dimensions":["wings","pattern"],"bee_group":{"antennae":"X","wings":"1","pattern":"D","legs":"X"},"action":"harvest","summary":"bad-harvest","bonus":0.6000000000000005},{"rt":915,"stimulus":"\n                    <p><b>Action: <em>harvest</em></b></p>\n                    <p>This is the bee that you just saw.</p>\n                    <img src=\"bees-with-color/bee-A1DM.svg\" width=\"200\">\n                    <p><span class=\"redText\">Bad choice, the bee was angry.</span><br><b>You have been stung!</b><br>Your pay has been decreased by $0.10. Your bonus pay is now $0.38.</p>\n            ","response":0,"trial_type":"html-button-response","trial_index":32,"time_elapsed":146452,"internal_node_id":"0.0-4.0-1.12","subject_id":"616987b7d5bd3be0ecf4310e","study_id":"6197b3f67c2b5cd3b6d9596a","session_id":"619be3218b9b69f2f085dbda","condition":"contingent","relevant_dimensions":["wings","pattern"],"bee_group":{"antennae":"X","wings":"1","pattern":"D","legs":"X"},"bonus":0.6000000000000005},{"rt":1342,"stimulus":"bees-with-color/bee-B2DF.svg","response":1,"trial_type":"image-button-response","trial_index":33,"time_elapsed":147795,"internal_node_id":"0.0-4.0-0.13","subject_id":"616987b7d5bd3be0ecf4310e","study_id":"6197b3f67c2b5cd3b6d9596a","session_id":"619be3218b9b69f2f085dbda","condition":"contingent","relevant_dimensions":["wings","pattern"],"bee_group":{"antennae":"X","wings":"1","pattern":"D","legs":"X"},"action":"avoid","summary":"bad-avoid","bonus":0.6000000000000005},{"rt":540.8000000007451,"stimulus":"\n                    <p><b>Action: <em>avoid</em></b></p>\n                    <p>This is the bee that you just saw.</p>\n                    <img src=\"bees-with-color/bee-B2DF.svg\" width=\"200\">\n                    <p><br>Your bonus pay is unchanged, and remains at $0.38.</p>\n            ","response":0,"trial_type":"html-button-response","trial_index":34,"time_elapsed":148337,"internal_node_id":"0.0-4.0-1.13","subject_id":"616987b7d5bd3be0ecf4310e","study_id":"6197b3f67c2b5cd3b6d9596a","session_id":"619be3218b9b69f2f085dbda","condition":"contingent","relevant_dimensions":["wings","pattern"],"bee_group":{"antennae":"X","wings":"1","pattern":"D","legs":"X"},"bonus":0.6000000000000005},{"rt":1186.8999999985099,"stimulus":"bees-with-color/bee-A1SF.svg","response":0,"trial_type":"image-button-response","trial_index":35,"time_elapsed":149525,"internal_node_id":"0.0-4.0-0.14","subject_id":"616987b7d5bd3be0ecf4310e","study_id":"6197b3f67c2b5cd3b6d9596a","session_id":"619be3218b9b69f2f085dbda","condition":"contingent","relevant_dimensions":["wings","pattern"],"bee_group":{"antennae":"X","wings":"1","pattern":"D","legs":"X"},"action":"harvest","summary":"good-harvest","bonus":0.6000000000000005},{"rt":641.7999999970198,"stimulus":"\n                    <p><b>Action: <em>harvest</em></b></p>\n                    <p>This is the bee that you just saw.</p>\n                    <img src=\"bees-with-color/bee-A1SF.svg\" width=\"200\">\n                    <p><span class=\"greenText\"><b>Successful harvest!</b></span><br>Your pay has increased by $0.02. Your bonus pay is now $0.40.</p>\n            ","response":0,"trial_type":"html-button-response","trial_index":36,"time_elapsed":150167,"internal_node_id":"0.0-4.0-1.14","subject_id":"616987b7d5bd3be0ecf4310e","study_id":"6197b3f67c2b5cd3b6d9596a","session_id":"619be3218b9b69f2f085dbda","condition":"contingent","relevant_dimensions":["wings","pattern"],"bee_group":{"antennae":"X","wings":"1","pattern":"D","legs":"X"},"bonus":0.6000000000000005},{"rt":3098.300000000745,"stimulus":"bees-with-color/bee-B1SM.svg","response":0,"trial_type":"image-button-response","trial_index":37,"time_elapsed":153267,"internal_node_id":"0.0-4.0-0.15","subject_id":"616987b7d5bd3be0ecf4310e","study_id":"6197b3f67c2b5cd3b6d9596a","session_id":"619be3218b9b69f2f085dbda","condition":"contingent","relevant_dimensions":["wings","pattern"],"bee_group":{"antennae":"X","wings":"1","pattern":"D","legs":"X"},"action":"harvest","summary":"good-harvest","bonus":0.6000000000000005},{"rt":668.8999999985099,"stimulus":"\n                    <p><b>Action: <em>harvest</em></b></p>\n                    <p>This is the bee that you just saw.</p>\n                    <img src=\"bees-with-color/bee-B1SM.svg\" width=\"200\">\n                    <p><span class=\"greenText\"><b>Successful harvest!</b></span><br>Your pay has increased by $0.02. Your bonus pay is now $0.42.</p>\n            ","response":0,"trial_type":"html-button-response","trial_index":38,"time_elapsed":153937,"internal_node_id":"0.0-4.0-1.15","subject_id":"616987b7d5bd3be0ecf4310e","study_id":"6197b3f67c2b5cd3b6d9596a","session_id":"619be3218b9b69f2f085dbda","condition":"contingent","relevant_dimensions":["wings","pattern"],"bee_group":{"antennae":"X","wings":"1","pattern":"D","legs":"X"},"bonus":0.6000000000000005},{"rt":2826.699999999255,"stimulus":"bees-with-color/bee-B1DF.svg","response":0,"trial_type":"image-button-response","trial_index":39,"time_elapsed":156765,"internal_node_id":"0.0-4.0-0.16","subject_id":"616987b7d5bd3be0ecf4310e","study_id":"6197b3f67c2b5cd3b6d9596a","session_id":"619be3218b9b69f2f085dbda","condition":"contingent","relevant_dimensions":["wings","pattern"],"bee_group":{"antennae":"X","wings":"1","pattern":"D","legs":"X"},"action":"harvest","summary":"bad-harvest","bonus":0.6000000000000005},{"rt":881.8999999985099,"stimulus":"\n                    <p><b>Action: <em>harvest</em></b></p>\n                    <p>This is the bee that you just saw.</p>\n                    <img src=\"bees-with-color/bee-B1DF.svg\" width=\"200\">\n                    <p><span class=\"redText\">Bad choice, the bee was angry.</span><br><b>You have been stung!</b><br>Your pay has been decreased by $0.10. Your bonus pay is now $0.32.</p>\n            ","response":0,"trial_type":"html-button-response","trial_index":40,"time_elapsed":157648,"internal_node_id":"0.0-4.0-1.16","subject_id":"616987b7d5bd3be0ecf4310e","study_id":"6197b3f67c2b5cd3b6d9596a","session_id":"619be3218b9b69f2f085dbda","condition":"contingent","relevant_dimensions":["wings","pattern"],"bee_group":{"antennae":"X","wings":"1","pattern":"D","legs":"X"},"bonus":0.6000000000000005},{"rt":1363.699999999255,"stimulus":"bees-with-color/bee-B2SF.svg","response":1,"trial_type":"image-button-response","trial_index":41,"time_elapsed":159013,"internal_node_id":"0.0-4.0-0.17","subject_id":"616987b7d5bd3be0ecf4310e","study_id":"6197b3f67c2b5cd3b6d9596a","session_id":"619be3218b9b69f2f085dbda","condition":"contingent","relevant_dimensions":["wings","pattern"],"bee_group":{"antennae":"X","wings":"1","pattern":"D","legs":"X"},"action":"avoid","summary":"bad-avoid","bonus":0.6000000000000005},{"rt":423.79999999701977,"stimulus":"\n                    <p><b>Action: <em>avoid</em></b></p>\n                    <p>This is the bee that you just saw.</p>\n                    <img src=\"bees-with-color/bee-B2SF.svg\" width=\"200\">\n                    <p><br>Your bonus pay is unchanged, and remains at $0.32.</p>\n            ","response":0,"trial_type":"html-button-response","trial_index":42,"time_elapsed":159438,"internal_node_id":"0.0-4.0-1.17","subject_id":"616987b7d5bd3be0ecf4310e","study_id":"6197b3f67c2b5cd3b6d9596a","session_id":"619be3218b9b69f2f085dbda","condition":"contingent","relevant_dimensions":["wings","pattern"],"bee_group":{"antennae":"X","wings":"1","pattern":"D","legs":"X"},"bonus":0.6000000000000005},{"rt":1280,"stimulus":"bees-with-color/bee-B1DM.svg","response":1,"trial_type":"image-button-response","trial_index":43,"time_elapsed":160719,"internal_node_id":"0.0-4.0-0.18","subject_id":"616987b7d5bd3be0ecf4310e","study_id":"6197b3f67c2b5cd3b6d9596a","session_id":"619be3218b9b69f2f085dbda","condition":"contingent","relevant_dimensions":["wings","pattern"],"bee_group":{"antennae":"X","wings":"1","pattern":"D","legs":"X"},"action":"avoid","summary":"good-avoid","bonus":0.6000000000000005},{"rt":387.8999999985099,"stimulus":"\n                    <p><b>Action: <em>avoid</em></b></p>\n                    <p>This is the bee that you just saw.</p>\n                    <img src=\"bees-with-color/bee-B1DM.svg\" width=\"200\">\n                    <p><br>Your bonus pay is unchanged, and remains at $0.32.</p>\n            ","response":0,"trial_type":"html-button-response","trial_index":44,"time_elapsed":161108,"internal_node_id":"0.0-4.0-1.18","subject_id":"616987b7d5bd3be0ecf4310e","study_id":"6197b3f67c2b5cd3b6d9596a","session_id":"619be3218b9b69f2f085dbda","condition":"contingent","relevant_dimensions":["wings","pattern"],"bee_group":{"antennae":"X","wings":"1","pattern":"D","legs":"X"},"bonus":0.6000000000000005},{"rt":1294.1000000014901,"stimulus":"bees-with-color/bee-A2SM.svg","response":1,"trial_type":"image-button-response","trial_index":45,"time_elapsed":162403,"internal_node_id":"0.0-4.0-0.19","subject_id":"616987b7d5bd3be0ecf4310e","study_id":"6197b3f67c2b5cd3b6d9596a","session_id":"619be3218b9b69f2f085dbda","condition":"contingent","relevant_dimensions":["wings","pattern"],"bee_group":{"antennae":"X","wings":"1","pattern":"D","legs":"X"},"action":"avoid","summary":"bad-avoid","bonus":0.6000000000000005},{"rt":406.9000000022352,"stimulus":"\n                    <p><b>Action: <em>avoid</em></b></p>\n                    <p>This is the bee that you just saw.</p>\n                    <img src=\"bees-with-color/bee-A2SM.svg\" width=\"200\">\n                    <p><br>Your bonus pay is unchanged, and remains at $0.32.</p>\n            ","response":0,"trial_type":"html-button-response","trial_index":46,"time_elapsed":162811,"internal_node_id":"0.0-4.0-1.19","subject_id":"616987b7d5bd3be0ecf4310e","study_id":"6197b3f67c2b5cd3b6d9596a","session_id":"619be3218b9b69f2f085dbda","condition":"contingent","relevant_dimensions":["wings","pattern"],"bee_group":{"antennae":"X","wings":"1","pattern":"D","legs":"X"},"bonus":0.6000000000000005},{"rt":1008.8000000007451,"stimulus":"bees-with-color/bee-B2SM.svg","response":1,"trial_type":"image-button-response","trial_index":47,"time_elapsed":163821,"internal_node_id":"0.0-4.0-0.20","subject_id":"616987b7d5bd3be0ecf4310e","study_id":"6197b3f67c2b5cd3b6d9596a","session_id":"619be3218b9b69f2f085dbda","condition":"contingent","relevant_dimensions":["wings","pattern"],"bee_group":{"antennae":"X","wings":"1","pattern":"D","legs":"X"},"action":"avoid","summary":"bad-avoid","bonus":0.6000000000000005},{"rt":384.69999999925494,"stimulus":"\n                    <p><b>Action: <em>avoid</em></b></p>\n                    <p>This is the bee that you just saw.</p>\n                    <img src=\"bees-with-color/bee-B2SM.svg\" width=\"200\">\n                    <p><br>Your bonus pay is unchanged, and remains at $0.32.</p>\n            ","response":0,"trial_type":"html-button-response","trial_index":48,"time_elapsed":164207,"internal_node_id":"0.0-4.0-1.20","subject_id":"616987b7d5bd3be0ecf4310e","study_id":"6197b3f67c2b5cd3b6d9596a","session_id":"619be3218b9b69f2f085dbda","condition":"contingent","relevant_dimensions":["wings","pattern"],"bee_group":{"antennae":"X","wings":"1","pattern":"D","legs":"X"},"bonus":0.6000000000000005},{"rt":816.8999999985099,"stimulus":"bees-with-color/bee-B2DM.svg","response":1,"trial_type":"image-button-response","trial_index":49,"time_elapsed":165025,"internal_node_id":"0.0-4.0-0.21","subject_id":"616987b7d5bd3be0ecf4310e","study_id":"6197b3f67c2b5cd3b6d9596a","session_id":"619be3218b9b69f2f085dbda","condition":"contingent","relevant_dimensions":["wings","pattern"],"bee_group":{"antennae":"X","wings":"1","pattern":"D","legs":"X"},"action":"avoid","summary":"bad-avoid","bonus":0.6000000000000005},{"rt":703.6999999992549,"stimulus":"\n                    <p><b>Action: <em>avoid</em></b></p>\n                    <p>This is the bee that you just saw.</p>\n                    <img src=\"bees-with-color/bee-B2DM.svg\" width=\"200\">\n                    <p><br>Your bonus pay is unchanged, and remains at $0.32.</p>\n            ","response":0,"trial_type":"html-button-response","trial_index":50,"time_elapsed":165730,"internal_node_id":"0.0-4.0-1.21","subject_id":"616987b7d5bd3be0ecf4310e","study_id":"6197b3f67c2b5cd3b6d9596a","session_id":"619be3218b9b69f2f085dbda","condition":"contingent","relevant_dimensions":["wings","pattern"],"bee_group":{"antennae":"X","wings":"1","pattern":"D","legs":"X"},"bonus":0.6000000000000005},{"rt":1473.1000000014901,"stimulus":"bees-with-color/bee-B1SM.svg","response":0,"trial_type":"image-button-response","trial_index":51,"time_elapsed":167204,"internal_node_id":"0.0-4.0-0.22","subject_id":"616987b7d5bd3be0ecf4310e","study_id":"6197b3f67c2b5cd3b6d9596a","session_id":"619be3218b9b69f2f085dbda","condition":"contingent","relevant_dimensions":["wings","pattern"],"bee_group":{"antennae":"X","wings":"1","pattern":"D","legs":"X"},"action":"harvest","summary":"good-harvest","bonus":0.6000000000000005},{"rt":528.8000000007451,"stimulus":"\n                    <p><b>Action: <em>harvest</em></b></p>\n                    <p>This is the bee that you just saw.</p>\n                    <img src=\"bees-with-color/bee-B1SM.svg\" width=\"200\">\n                    <p><span class=\"greenText\"><b>Successful harvest!</b></span><br>Your pay has increased by $0.02. Your bonus pay is now $0.34.</p>\n            ","response":0,"trial_type":"html-button-response","trial_index":52,"time_elapsed":167734,"internal_node_id":"0.0-4.0-1.22","subject_id":"616987b7d5bd3be0ecf4310e","study_id":"6197b3f67c2b5cd3b6d9596a","session_id":"619be3218b9b69f2f085dbda","condition":"contingent","relevant_dimensions":["wings","pattern"],"bee_group":{"antennae":"X","wings":"1","pattern":"D","legs":"X"},"bonus":0.6000000000000005},{"rt":1378.699999999255,"stimulus":"bees-with-color/bee-A2SF.svg","response":1,"trial_type":"image-button-response","trial_index":53,"time_elapsed":169114,"internal_node_id":"0.0-4.0-0.23","subject_id":"616987b7d5bd3be0ecf4310e","study_id":"6197b3f67c2b5cd3b6d9596a","session_id":"619be3218b9b69f2f085dbda","condition":"contingent","relevant_dimensions":["wings","pattern"],"bee_group":{"antennae":"X","wings":"1","pattern":"D","legs":"X"},"action":"avoid","summary":"bad-avoid","bonus":0.6000000000000005},{"rt":469.0999999977648,"stimulus":"\n                    <p><b>Action: <em>avoid</em></b></p>\n                    <p>This is the bee that you just saw.</p>\n                    <img src=\"bees-with-color/bee-A2SF.svg\" width=\"200\">\n                    <p><br>Your bonus pay is unchanged, and remains at $0.34.</p>\n            ","response":0,"trial_type":"html-button-response","trial_index":54,"time_elapsed":169584,"internal_node_id":"0.0-4.0-1.23","subject_id":"616987b7d5bd3be0ecf4310e","study_id":"6197b3f67c2b5cd3b6d9596a","session_id":"619be3218b9b69f2f085dbda","condition":"contingent","relevant_dimensions":["wings","pattern"],"bee_group":{"antennae":"X","wings":"1","pattern":"D","legs":"X"},"bonus":0.6000000000000005},{"rt":860.9000000022352,"stimulus":"bees-with-color/bee-B2DF.svg","response":1,"trial_type":"image-button-response","trial_index":55,"time_elapsed":170446,"internal_node_id":"0.0-4.0-0.24","subject_id":"616987b7d5bd3be0ecf4310e","study_id":"6197b3f67c2b5cd3b6d9596a","session_id":"619be3218b9b69f2f085dbda","condition":"contingent","relevant_dimensions":["wings","pattern"],"bee_group":{"antennae":"X","wings":"1","pattern":"D","legs":"X"},"action":"avoid","summary":"bad-avoid","bonus":0.6000000000000005},{"rt":389.19999999925494,"stimulus":"\n                    <p><b>Action: <em>avoid</em></b></p>\n                    <p>This is the bee that you just saw.</p>\n                    <img src=\"bees-with-color/bee-B2DF.svg\" width=\"200\">\n                    <p><br>Your bonus pay is unchanged, and remains at $0.34.</p>\n            ","response":0,"trial_type":"html-button-response","trial_index":56,"time_elapsed":170836,"internal_node_id":"0.0-4.0-1.24","subject_id":"616987b7d5bd3be0ecf4310e","study_id":"6197b3f67c2b5cd3b6d9596a","session_id":"619be3218b9b69f2f085dbda","condition":"contingent","relevant_dimensions":["wings","pattern"],"bee_group":{"antennae":"X","wings":"1","pattern":"D","legs":"X"},"bonus":0.6000000000000005},{"rt":1070.699999999255,"stimulus":"bees-with-color/bee-A2DF.svg","response":1,"trial_type":"image-button-response","trial_index":57,"time_elapsed":171908,"internal_node_id":"0.0-4.0-0.25","subject_id":"616987b7d5bd3be0ecf4310e","study_id":"6197b3f67c2b5cd3b6d9596a","session_id":"619be3218b9b69f2f085dbda","condition":"contingent","relevant_dimensions":["wings","pattern"],"bee_group":{"antennae":"X","wings":"1","pattern":"D","legs":"X"},"action":"avoid","summary":"bad-avoid","bonus":0.6000000000000005},{"rt":381,"stimulus":"\n                    <p><b>Action: <em>avoid</em></b></p>\n                    <p>This is the bee that you just saw.</p>\n                    <img src=\"bees-with-color/bee-A2DF.svg\" width=\"200\">\n                    <p><br>Your bonus pay is unchanged, and remains at $0.34.</p>\n            ","response":0,"trial_type":"html-button-response","trial_index":58,"time_elapsed":172290,"internal_node_id":"0.0-4.0-1.25","subject_id":"616987b7d5bd3be0ecf4310e","study_id":"6197b3f67c2b5cd3b6d9596a","session_id":"619be3218b9b69f2f085dbda","condition":"contingent","relevant_dimensions":["wings","pattern"],"bee_group":{"antennae":"X","wings":"1","pattern":"D","legs":"X"},"bonus":0.6000000000000005},{"rt":1173.8999999985099,"stimulus":"bees-with-color/bee-A1DM.svg","response":1,"trial_type":"image-button-response","trial_index":59,"time_elapsed":173464,"internal_node_id":"0.0-4.0-0.26","subject_id":"616987b7d5bd3be0ecf4310e","study_id":"6197b3f67c2b5cd3b6d9596a","session_id":"619be3218b9b69f2f085dbda","condition":"contingent","relevant_dimensions":["wings","pattern"],"bee_group":{"antennae":"X","wings":"1","pattern":"D","legs":"X"},"action":"avoid","summary":"good-avoid","bonus":0.6000000000000005},{"rt":333.69999999925494,"stimulus":"\n                    <p><b>Action: <em>avoid</em></b></p>\n                    <p>This is the bee that you just saw.</p>\n                    <img src=\"bees-with-color/bee-A1DM.svg\" width=\"200\">\n                    <p><br>Your bonus pay is unchanged, and remains at $0.34.</p>\n            ","response":0,"trial_type":"html-button-response","trial_index":60,"time_elapsed":173799,"internal_node_id":"0.0-4.0-1.26","subject_id":"616987b7d5bd3be0ecf4310e","study_id":"6197b3f67c2b5cd3b6d9596a","session_id":"619be3218b9b69f2f085dbda","condition":"contingent","relevant_dimensions":["wings","pattern"],"bee_group":{"antennae":"X","wings":"1","pattern":"D","legs":"X"},"bonus":0.6000000000000005},{"rt":1161.800000000745,"stimulus":"bees-with-color/bee-A1DF.svg","response":1,"trial_type":"image-button-response","trial_index":61,"time_elapsed":174962,"internal_node_id":"0.0-4.0-0.27","subject_id":"616987b7d5bd3be0ecf4310e","study_id":"6197b3f67c2b5cd3b6d9596a","session_id":"619be3218b9b69f2f085dbda","condition":"contingent","relevant_dimensions":["wings","pattern"],"bee_group":{"antennae":"X","wings":"1","pattern":"D","legs":"X"},"action":"avoid","summary":"good-avoid","bonus":0.6000000000000005},{"rt":405.8999999985099,"stimulus":"\n                    <p><b>Action: <em>avoid</em></b></p>\n                    <p>This is the bee that you just saw.</p>\n                    <img src=\"bees-with-color/bee-A1DF.svg\" width=\"200\">\n                    <p><br>Your bonus pay is unchanged, and remains at $0.34.</p>\n            ","response":0,"trial_type":"html-button-response","trial_index":62,"time_elapsed":175369,"internal_node_id":"0.0-4.0-1.27","subject_id":"616987b7d5bd3be0ecf4310e","study_id":"6197b3f67c2b5cd3b6d9596a","session_id":"619be3218b9b69f2f085dbda","condition":"contingent","relevant_dimensions":["wings","pattern"],"bee_group":{"antennae":"X","wings":"1","pattern":"D","legs":"X"},"bonus":0.6000000000000005},{"rt":1115.5,"stimulus":"bees-with-color/bee-B1SF.svg","response":0,"trial_type":"image-button-response","trial_index":63,"time_elapsed":176486,"internal_node_id":"0.0-4.0-0.28","subject_id":"616987b7d5bd3be0ecf4310e","study_id":"6197b3f67c2b5cd3b6d9596a","session_id":"619be3218b9b69f2f085dbda","condition":"contingent","relevant_dimensions":["wings","pattern"],"bee_group":{"antennae":"X","wings":"1","pattern":"D","legs":"X"},"action":"harvest","summary":"good-harvest","bonus":0.6000000000000005},{"rt":1324.7999999970198,"stimulus":"\n                    <p><b>Action: <em>harvest</em></b></p>\n                    <p>This is the bee that you just saw.</p>\n                    <img src=\"bees-with-color/bee-B1SF.svg\" width=\"200\">\n                    <p><span class=\"greenText\"><b>Successful harvest!</b></span><br>Your pay has increased by $0.02. Your bonus pay is now $0.36.</p>\n            ","response":0,"trial_type":"html-button-response","trial_index":64,"time_elapsed":177812,"internal_node_id":"0.0-4.0-1.28","subject_id":"616987b7d5bd3be0ecf4310e","study_id":"6197b3f67c2b5cd3b6d9596a","session_id":"619be3218b9b69f2f085dbda","condition":"contingent","relevant_dimensions":["wings","pattern"],"bee_group":{"antennae":"X","wings":"1","pattern":"D","legs":"X"},"bonus":0.6000000000000005},{"rt":888.1000000014901,"stimulus":"bees-with-color/bee-A2DM.svg","response":1,"trial_type":"image-button-response","trial_index":65,"time_elapsed":178701,"internal_node_id":"0.0-4.0-0.29","subject_id":"616987b7d5bd3be0ecf4310e","study_id":"6197b3f67c2b5cd3b6d9596a","session_id":"619be3218b9b69f2f085dbda","condition":"contingent","relevant_dimensions":["wings","pattern"],"bee_group":{"antennae":"X","wings":"1","pattern":"D","legs":"X"},"action":"avoid","summary":"bad-avoid","bonus":0.6000000000000005},{"rt":350.8999999985099,"stimulus":"\n                    <p><b>Action: <em>avoid</em></b></p>\n                    <p>This is the bee that you just saw.</p>\n                    <img src=\"bees-with-color/bee-A2DM.svg\" width=\"200\">\n                    <p><br>Your bonus pay is unchanged, and remains at $0.36.</p>\n            ","response":0,"trial_type":"html-button-response","trial_index":66,"time_elapsed":179053,"internal_node_id":"0.0-4.0-1.29","subject_id":"616987b7d5bd3be0ecf4310e","study_id":"6197b3f67c2b5cd3b6d9596a","session_id":"619be3218b9b69f2f085dbda","condition":"contingent","relevant_dimensions":["wings","pattern"],"bee_group":{"antennae":"X","wings":"1","pattern":"D","legs":"X"},"bonus":0.6000000000000005},{"rt":1736.1000000014901,"stimulus":"bees-with-color/bee-A1SM.svg","response":0,"trial_type":"image-button-response","trial_index":67,"time_elapsed":180790,"internal_node_id":"0.0-4.0-0.30","subject_id":"616987b7d5bd3be0ecf4310e","study_id":"6197b3f67c2b5cd3b6d9596a","session_id":"619be3218b9b69f2f085dbda","condition":"contingent","relevant_dimensions":["wings","pattern"],"bee_group":{"antennae":"X","wings":"1","pattern":"D","legs":"X"},"action":"harvest","summary":"good-harvest","bonus":0.6000000000000005},{"rt":585.6999999992549,"stimulus":"\n                    <p><b>Action: <em>harvest</em></b></p>\n                    <p>This is the bee that you just saw.</p>\n                    <img src=\"bees-with-color/bee-A1SM.svg\" width=\"200\">\n                    <p><span class=\"greenText\"><b>Successful harvest!</b></span><br>Your pay has increased by $0.02. Your bonus pay is now $0.38.</p>\n            ","response":0,"trial_type":"html-button-response","trial_index":68,"time_elapsed":181377,"internal_node_id":"0.0-4.0-1.30","subject_id":"616987b7d5bd3be0ecf4310e","study_id":"6197b3f67c2b5cd3b6d9596a","session_id":"619be3218b9b69f2f085dbda","condition":"contingent","relevant_dimensions":["wings","pattern"],"bee_group":{"antennae":"X","wings":"1","pattern":"D","legs":"X"},"bonus":0.6000000000000005},{"rt":847.6999999992549,"stimulus":"bees-with-color/bee-A1SF.svg","response":0,"trial_type":"image-button-response","trial_index":69,"time_elapsed":182226,"internal_node_id":"0.0-4.0-0.31","subject_id":"616987b7d5bd3be0ecf4310e","study_id":"6197b3f67c2b5cd3b6d9596a","session_id":"619be3218b9b69f2f085dbda","condition":"contingent","relevant_dimensions":["wings","pattern"],"bee_group":{"antennae":"X","wings":"1","pattern":"D","legs":"X"},"action":"harvest","summary":"good-harvest","bonus":0.6000000000000005},{"rt":462.69999999925494,"stimulus":"\n                    <p><b>Action: <em>harvest</em></b></p>\n                    <p>This is the bee that you just saw.</p>\n                    <img src=\"bees-with-color/bee-A1SF.svg\" width=\"200\">\n                    <p><span class=\"greenText\"><b>Successful harvest!</b></span><br>Your pay has increased by $0.02. Your bonus pay is now $0.40.</p>\n            ","response":0,"trial_type":"html-button-response","trial_index":70,"time_elapsed":182690,"internal_node_id":"0.0-4.0-1.31","subject_id":"616987b7d5bd3be0ecf4310e","study_id":"6197b3f67c2b5cd3b6d9596a","session_id":"619be3218b9b69f2f085dbda","condition":"contingent","relevant_dimensions":["wings","pattern"],"bee_group":{"antennae":"X","wings":"1","pattern":"D","legs":"X"},"bonus":0.6000000000000005},{"rt":1192.300000000745,"stimulus":"bees-with-color/bee-B2DF.svg","response":1,"trial_type":"image-button-response","trial_index":71,"time_elapsed":183883,"internal_node_id":"0.0-4.0-0.32","subject_id":"616987b7d5bd3be0ecf4310e","study_id":"6197b3f67c2b5cd3b6d9596a","session_id":"619be3218b9b69f2f085dbda","condition":"contingent","relevant_dimensions":["wings","pattern"],"bee_group":{"antennae":"X","wings":"1","pattern":"D","legs":"X"},"action":"avoid","summary":"bad-avoid","bonus":0.6000000000000005},{"rt":372.5999999977648,"stimulus":"\n                    <p><b>Action: <em>avoid</em></b></p>\n                    <p>This is the bee that you just saw.</p>\n                    <img src=\"bees-with-color/bee-B2DF.svg\" width=\"200\">\n                    <p><br>Your bonus pay is unchanged, and remains at $0.40.</p>\n            ","response":0,"trial_type":"html-button-response","trial_index":72,"time_elapsed":184257,"internal_node_id":"0.0-4.0-1.32","subject_id":"616987b7d5bd3be0ecf4310e","study_id":"6197b3f67c2b5cd3b6d9596a","session_id":"619be3218b9b69f2f085dbda","condition":"contingent","relevant_dimensions":["wings","pattern"],"bee_group":{"antennae":"X","wings":"1","pattern":"D","legs":"X"},"bonus":0.6000000000000005},{"rt":1523.8999999985099,"stimulus":"bees-with-color/bee-A1SF.svg","response":0,"trial_type":"image-button-response","trial_index":73,"time_elapsed":185782,"internal_node_id":"0.0-4.0-0.33","subject_id":"616987b7d5bd3be0ecf4310e","study_id":"6197b3f67c2b5cd3b6d9596a","session_id":"619be3218b9b69f2f085dbda","condition":"contingent","relevant_dimensions":["wings","pattern"],"bee_group":{"antennae":"X","wings":"1","pattern":"D","legs":"X"},"action":"harvest","summary":"good-harvest","bonus":0.6000000000000005},{"rt":828.2999999970198,"stimulus":"\n                    <p><b>Action: <em>harvest</em></b></p>\n                    <p>This is the bee that you just saw.</p>\n                    <img src=\"bees-with-color/bee-A1SF.svg\" width=\"200\">\n                    <p><span class=\"greenText\"><b>Successful harvest!</b></span><br>Your pay has increased by $0.02. Your bonus pay is now $0.42.</p>\n            ","response":0,"trial_type":"html-button-response","trial_index":74,"time_elapsed":186612,"internal_node_id":"0.0-4.0-1.33","subject_id":"616987b7d5bd3be0ecf4310e","study_id":"6197b3f67c2b5cd3b6d9596a","session_id":"619be3218b9b69f2f085dbda","condition":"contingent","relevant_dimensions":["wings","pattern"],"bee_group":{"antennae":"X","wings":"1","pattern":"D","legs":"X"},"bonus":0.6000000000000005},{"rt":1494,"stimulus":"bees-with-color/bee-A1DF.svg","response":1,"trial_type":"image-button-response","trial_index":75,"time_elapsed":188107,"internal_node_id":"0.0-4.0-0.34","subject_id":"616987b7d5bd3be0ecf4310e","study_id":"6197b3f67c2b5cd3b6d9596a","session_id":"619be3218b9b69f2f085dbda","condition":"contingent","relevant_dimensions":["wings","pattern"],"bee_group":{"antennae":"X","wings":"1","pattern":"D","legs":"X"},"action":"avoid","summary":"good-avoid","bonus":0.6000000000000005},{"rt":524.9000000022352,"stimulus":"\n                    <p><b>Action: <em>avoid</em></b></p>\n                    <p>This is the bee that you just saw.</p>\n                    <img src=\"bees-with-color/bee-A1DF.svg\" width=\"200\">\n                    <p><br>Your bonus pay is unchanged, and remains at $0.42.</p>\n            ","response":0,"trial_type":"html-button-response","trial_index":76,"time_elapsed":188633,"internal_node_id":"0.0-4.0-1.34","subject_id":"616987b7d5bd3be0ecf4310e","study_id":"6197b3f67c2b5cd3b6d9596a","session_id":"619be3218b9b69f2f085dbda","condition":"contingent","relevant_dimensions":["wings","pattern"],"bee_group":{"antennae":"X","wings":"1","pattern":"D","legs":"X"},"bonus":0.6000000000000005},{"rt":761.7999999970198,"stimulus":"bees-with-color/bee-B1SF.svg","response":0,"trial_type":"image-button-response","trial_index":77,"time_elapsed":189396,"internal_node_id":"0.0-4.0-0.35","subject_id":"616987b7d5bd3be0ecf4310e","study_id":"6197b3f67c2b5cd3b6d9596a","session_id":"619be3218b9b69f2f085dbda","condition":"contingent","relevant_dimensions":["wings","pattern"],"bee_group":{"antennae":"X","wings":"1","pattern":"D","legs":"X"},"action":"harvest","summary":"good-harvest","bonus":0.6000000000000005},{"rt":624.8999999985099,"stimulus":"\n                    <p><b>Action: <em>harvest</em></b></p>\n                    <p>This is the bee that you just saw.</p>\n                    <img src=\"bees-with-color/bee-B1SF.svg\" width=\"200\">\n                    <p><span class=\"greenText\"><b>Successful harvest!</b></span><br>Your pay has increased by $0.02. Your bonus pay is now $0.44.</p>\n            ","response":0,"trial_type":"html-button-response","trial_index":78,"time_elapsed":190022,"internal_node_id":"0.0-4.0-1.35","subject_id":"616987b7d5bd3be0ecf4310e","study_id":"6197b3f67c2b5cd3b6d9596a","session_id":"619be3218b9b69f2f085dbda","condition":"contingent","relevant_dimensions":["wings","pattern"],"bee_group":{"antennae":"X","wings":"1","pattern":"D","legs":"X"},"bonus":0.6000000000000005},{"rt":754,"stimulus":"bees-with-color/bee-A2DF.svg","response":1,"trial_type":"image-button-response","trial_index":79,"time_elapsed":190777,"internal_node_id":"0.0-4.0-0.36","subject_id":"616987b7d5bd3be0ecf4310e","study_id":"6197b3f67c2b5cd3b6d9596a","session_id":"619be3218b9b69f2f085dbda","condition":"contingent","relevant_dimensions":["wings","pattern"],"bee_group":{"antennae":"X","wings":"1","pattern":"D","legs":"X"},"action":"avoid","summary":"bad-avoid","bonus":0.6000000000000005},{"rt":404.80000000074506,"stimulus":"\n                    <p><b>Action: <em>avoid</em></b></p>\n                    <p>This is the bee that you just saw.</p>\n                    <img src=\"bees-with-color/bee-A2DF.svg\" width=\"200\">\n                    <p><br>Your bonus pay is unchanged, and remains at $0.44.</p>\n            ","response":0,"trial_type":"html-button-response","trial_index":80,"time_elapsed":191183,"internal_node_id":"0.0-4.0-1.36","subject_id":"616987b7d5bd3be0ecf4310e","study_id":"6197b3f67c2b5cd3b6d9596a","session_id":"619be3218b9b69f2f085dbda","condition":"contingent","relevant_dimensions":["wings","pattern"],"bee_group":{"antennae":"X","wings":"1","pattern":"D","legs":"X"},"bonus":0.6000000000000005},{"rt":2721.2999999970198,"stimulus":"bees-with-color/bee-A2SM.svg","response":1,"trial_type":"image-button-response","trial_index":81,"time_elapsed":193906,"internal_node_id":"0.0-4.0-0.37","subject_id":"616987b7d5bd3be0ecf4310e","study_id":"6197b3f67c2b5cd3b6d9596a","session_id":"619be3218b9b69f2f085dbda","condition":"contingent","relevant_dimensions":["wings","pattern"],"bee_group":{"antennae":"X","wings":"1","pattern":"D","legs":"X"},"action":"avoid","summary":"bad-avoid","bonus":0.6000000000000005},{"rt":435.1000000014901,"stimulus":"\n                    <p><b>Action: <em>avoid</em></b></p>\n                    <p>This is the bee that you just saw.</p>\n                    <img src=\"bees-with-color/bee-A2SM.svg\" width=\"200\">\n                    <p><br>Your bonus pay is unchanged, and remains at $0.44.</p>\n            ","response":0,"trial_type":"html-button-response","trial_index":82,"time_elapsed":194342,"internal_node_id":"0.0-4.0-1.37","subject_id":"616987b7d5bd3be0ecf4310e","study_id":"6197b3f67c2b5cd3b6d9596a","session_id":"619be3218b9b69f2f085dbda","condition":"contingent","relevant_dimensions":["wings","pattern"],"bee_group":{"antennae":"X","wings":"1","pattern":"D","legs":"X"},"bonus":0.6000000000000005},{"rt":4408.800000000745,"stimulus":"bees-with-color/bee-B1SM.svg","response":0,"trial_type":"image-button-response","trial_index":83,"time_elapsed":198752,"internal_node_id":"0.0-4.0-0.38","subject_id":"616987b7d5bd3be0ecf4310e","study_id":"6197b3f67c2b5cd3b6d9596a","session_id":"619be3218b9b69f2f085dbda","condition":"contingent","relevant_dimensions":["wings","pattern"],"bee_group":{"antennae":"X","wings":"1","pattern":"D","legs":"X"},"action":"harvest","summary":"good-harvest","bonus":0.6000000000000005},{"rt":598.6999999992549,"stimulus":"\n                    <p><b>Action: <em>harvest</em></b></p>\n                    <p>This is the bee that you just saw.</p>\n                    <img src=\"bees-with-color/bee-B1SM.svg\" width=\"200\">\n                    <p><span class=\"greenText\"><b>Successful harvest!</b></span><br>Your pay has increased by $0.02. Your bonus pay is now $0.46.</p>\n            ","response":0,"trial_type":"html-button-response","trial_index":84,"time_elapsed":199352,"internal_node_id":"0.0-4.0-1.38","subject_id":"616987b7d5bd3be0ecf4310e","study_id":"6197b3f67c2b5cd3b6d9596a","session_id":"619be3218b9b69f2f085dbda","condition":"contingent","relevant_dimensions":["wings","pattern"],"bee_group":{"antennae":"X","wings":"1","pattern":"D","legs":"X"},"bonus":0.6000000000000005},{"rt":959.6999999992549,"stimulus":"bees-with-color/bee-B1DF.svg","response":1,"trial_type":"image-button-response","trial_index":85,"time_elapsed":200313,"internal_node_id":"0.0-4.0-0.39","subject_id":"616987b7d5bd3be0ecf4310e","study_id":"6197b3f67c2b5cd3b6d9596a","session_id":"619be3218b9b69f2f085dbda","condition":"contingent","relevant_dimensions":["wings","pattern"],"bee_group":{"antennae":"X","wings":"1","pattern":"D","legs":"X"},"action":"avoid","summary":"good-avoid","bonus":0.6000000000000005},{"rt":526,"stimulus":"\n                    <p><b>Action: <em>avoid</em></b></p>\n                    <p>This is the bee that you just saw.</p>\n                    <img src=\"bees-with-color/bee-B1DF.svg\" width=\"200\">\n                    <p><br>Your bonus pay is unchanged, and remains at $0.46.</p>\n            ","response":0,"trial_type":"html-button-response","trial_index":86,"time_elapsed":200840,"internal_node_id":"0.0-4.0-1.39","subject_id":"616987b7d5bd3be0ecf4310e","study_id":"6197b3f67c2b5cd3b6d9596a","session_id":"619be3218b9b69f2f085dbda","condition":"contingent","relevant_dimensions":["wings","pattern"],"bee_group":{"antennae":"X","wings":"1","pattern":"D","legs":"X"},"bonus":0.6000000000000005},{"rt":1096.0999999977648,"stimulus":"bees-with-color/bee-A1DM.svg","response":1,"trial_type":"image-button-response","trial_index":87,"time_elapsed":201937,"internal_node_id":"0.0-4.0-0.40","subject_id":"616987b7d5bd3be0ecf4310e","study_id":"6197b3f67c2b5cd3b6d9596a","session_id":"619be3218b9b69f2f085dbda","condition":"contingent","relevant_dimensions":["wings","pattern"],"bee_group":{"antennae":"X","wings":"1","pattern":"D","legs":"X"},"action":"avoid","summary":"good-avoid","bonus":0.6000000000000005},{"rt":384,"stimulus":"\n                    <p><b>Action: <em>avoid</em></b></p>\n                    <p>This is the bee that you just saw.</p>\n                    <img src=\"bees-with-color/bee-A1DM.svg\" width=\"200\">\n                    <p><br>Your bonus pay is unchanged, and remains at $0.46.</p>\n            ","response":0,"trial_type":"html-button-response","trial_index":88,"time_elapsed":202322,"internal_node_id":"0.0-4.0-1.40","subject_id":"616987b7d5bd3be0ecf4310e","study_id":"6197b3f67c2b5cd3b6d9596a","session_id":"619be3218b9b69f2f085dbda","condition":"contingent","relevant_dimensions":["wings","pattern"],"bee_group":{"antennae":"X","wings":"1","pattern":"D","legs":"X"},"bonus":0.6000000000000005},{"rt":810.5,"stimulus":"bees-with-color/bee-B2DM.svg","response":1,"trial_type":"image-button-response","trial_index":89,"time_elapsed":203133,"internal_node_id":"0.0-4.0-0.41","subject_id":"616987b7d5bd3be0ecf4310e","study_id":"6197b3f67c2b5cd3b6d9596a","session_id":"619be3218b9b69f2f085dbda","condition":"contingent","relevant_dimensions":["wings","pattern"],"bee_group":{"antennae":"X","wings":"1","pattern":"D","legs":"X"},"action":"avoid","summary":"bad-avoid","bonus":0.6000000000000005},{"rt":303.80000000074506,"stimulus":"\n                    <p><b>Action: <em>avoid</em></b></p>\n                    <p>This is the bee that you just saw.</p>\n                    <img src=\"bees-with-color/bee-B2DM.svg\" width=\"200\">\n                    <p><br>Your bonus pay is unchanged, and remains at $0.46.</p>\n            ","response":0,"trial_type":"html-button-response","trial_index":90,"time_elapsed":203438,"internal_node_id":"0.0-4.0-1.41","subject_id":"616987b7d5bd3be0ecf4310e","study_id":"6197b3f67c2b5cd3b6d9596a","session_id":"619be3218b9b69f2f085dbda","condition":"contingent","relevant_dimensions":["wings","pattern"],"bee_group":{"antennae":"X","wings":"1","pattern":"D","legs":"X"},"bonus":0.6000000000000005},{"rt":1108.8999999985099,"stimulus":"bees-with-color/bee-A2SF.svg","response":1,"trial_type":"image-button-response","trial_index":91,"time_elapsed":204548,"internal_node_id":"0.0-4.0-0.42","subject_id":"616987b7d5bd3be0ecf4310e","study_id":"6197b3f67c2b5cd3b6d9596a","session_id":"619be3218b9b69f2f085dbda","condition":"contingent","relevant_dimensions":["wings","pattern"],"bee_group":{"antennae":"X","wings":"1","pattern":"D","legs":"X"},"action":"avoid","summary":"bad-avoid","bonus":0.6000000000000005},{"rt":316.8999999985099,"stimulus":"\n                    <p><b>Action: <em>avoid</em></b></p>\n                    <p>This is the bee that you just saw.</p>\n                    <img src=\"bees-with-color/bee-A2SF.svg\" width=\"200\">\n                    <p><br>Your bonus pay is unchanged, and remains at $0.46.</p>\n            ","response":0,"trial_type":"html-button-response","trial_index":92,"time_elapsed":204866,"internal_node_id":"0.0-4.0-1.42","subject_id":"616987b7d5bd3be0ecf4310e","study_id":"6197b3f67c2b5cd3b6d9596a","session_id":"619be3218b9b69f2f085dbda","condition":"contingent","relevant_dimensions":["wings","pattern"],"bee_group":{"antennae":"X","wings":"1","pattern":"D","legs":"X"},"bonus":0.6000000000000005},{"rt":783.6999999992549,"stimulus":"bees-with-color/bee-A2DM.svg","response":1,"trial_type":"image-button-response","trial_index":93,"time_elapsed":205651,"internal_node_id":"0.0-4.0-0.43","subject_id":"616987b7d5bd3be0ecf4310e","study_id":"6197b3f67c2b5cd3b6d9596a","session_id":"619be3218b9b69f2f085dbda","condition":"contingent","relevant_dimensions":["wings","pattern"],"bee_group":{"antennae":"X","wings":"1","pattern":"D","legs":"X"},"action":"avoid","summary":"bad-avoid","bonus":0.6000000000000005},{"rt":274,"stimulus":"\n                    <p><b>Action: <em>avoid</em></b></p>\n                    <p>This is the bee that you just saw.</p>\n                    <img src=\"bees-with-color/bee-A2DM.svg\" width=\"200\">\n                    <p><br>Your bonus pay is unchanged, and remains at $0.46.</p>\n            ","response":0,"trial_type":"html-button-response","trial_index":94,"time_elapsed":205926,"internal_node_id":"0.0-4.0-1.43","subject_id":"616987b7d5bd3be0ecf4310e","study_id":"6197b3f67c2b5cd3b6d9596a","session_id":"619be3218b9b69f2f085dbda","condition":"contingent","relevant_dimensions":["wings","pattern"],"bee_group":{"antennae":"X","wings":"1","pattern":"D","legs":"X"},"bonus":0.6000000000000005},{"rt":815,"stimulus":"bees-with-color/bee-B2SM.svg","response":1,"trial_type":"image-button-response","trial_index":95,"time_elapsed":206742,"internal_node_id":"0.0-4.0-0.44","subject_id":"616987b7d5bd3be0ecf4310e","study_id":"6197b3f67c2b5cd3b6d9596a","session_id":"619be3218b9b69f2f085dbda","condition":"contingent","relevant_dimensions":["wings","pattern"],"bee_group":{"antennae":"X","wings":"1","pattern":"D","legs":"X"},"action":"avoid","summary":"bad-avoid","bonus":0.6000000000000005},{"rt":571.8999999985099,"stimulus":"\n                    <p><b>Action: <em>avoid</em></b></p>\n                    <p>This is the bee that you just saw.</p>\n                    <img src=\"bees-with-color/bee-B2SM.svg\" width=\"200\">\n                    <p><br>Your bonus pay is unchanged, and remains at $0.46.</p>\n            ","response":0,"trial_type":"html-button-response","trial_index":96,"time_elapsed":207315,"internal_node_id":"0.0-4.0-1.44","subject_id":"616987b7d5bd3be0ecf4310e","study_id":"6197b3f67c2b5cd3b6d9596a","session_id":"619be3218b9b69f2f085dbda","condition":"contingent","relevant_dimensions":["wings","pattern"],"bee_group":{"antennae":"X","wings":"1","pattern":"D","legs":"X"},"bonus":0.6000000000000005},{"rt":784,"stimulus":"bees-with-color/bee-A1SM.svg","response":1,"trial_type":"image-button-response","trial_index":97,"time_elapsed":208100,"internal_node_id":"0.0-4.0-0.45","subject_id":"616987b7d5bd3be0ecf4310e","study_id":"6197b3f67c2b5cd3b6d9596a","session_id":"619be3218b9b69f2f085dbda","condition":"contingent","relevant_dimensions":["wings","pattern"],"bee_group":{"antennae":"X","wings":"1","pattern":"D","legs":"X"},"action":"avoid","summary":"bad-avoid","bonus":0.6000000000000005},{"rt":348.69999999925494,"stimulus":"\n                    <p><b>Action: <em>avoid</em></b></p>\n                    <p>This is the bee that you just saw.</p>\n                    <img src=\"bees-with-color/bee-A1SM.svg\" width=\"200\">\n                    <p><br>Your bonus pay is unchanged, and remains at $0.46.</p>\n            ","response":0,"trial_type":"html-button-response","trial_index":98,"time_elapsed":208450,"internal_node_id":"0.0-4.0-1.45","subject_id":"616987b7d5bd3be0ecf4310e","study_id":"6197b3f67c2b5cd3b6d9596a","session_id":"619be3218b9b69f2f085dbda","condition":"contingent","relevant_dimensions":["wings","pattern"],"bee_group":{"antennae":"X","wings":"1","pattern":"D","legs":"X"},"bonus":0.6000000000000005},{"rt":1001.1000000014901,"stimulus":"bees-with-color/bee-B2SF.svg","response":1,"trial_type":"image-button-response","trial_index":99,"time_elapsed":209452,"internal_node_id":"0.0-4.0-0.46","subject_id":"616987b7d5bd3be0ecf4310e","study_id":"6197b3f67c2b5cd3b6d9596a","session_id":"619be3218b9b69f2f085dbda","condition":"contingent","relevant_dimensions":["wings","pattern"],"bee_group":{"antennae":"X","wings":"1","pattern":"D","legs":"X"},"action":"avoid","summary":"bad-avoid","bonus":0.6000000000000005},{"rt":263.69999999925494,"stimulus":"\n                    <p><b>Action: <em>avoid</em></b></p>\n                    <p>This is the bee that you just saw.</p>\n                    <img src=\"bees-with-color/bee-B2SF.svg\" width=\"200\">\n                    <p><br>Your bonus pay is unchanged, and remains at $0.46.</p>\n            ","response":0,"trial_type":"html-button-response","trial_index":100,"time_elapsed":209717,"internal_node_id":"0.0-4.0-1.46","subject_id":"616987b7d5bd3be0ecf4310e","study_id":"6197b3f67c2b5cd3b6d9596a","session_id":"619be3218b9b69f2f085dbda","condition":"contingent","relevant_dimensions":["wings","pattern"],"bee_group":{"antennae":"X","wings":"1","pattern":"D","legs":"X"},"bonus":0.6000000000000005},{"rt":776.8999999985099,"stimulus":"bees-with-color/bee-B1DM.svg","response":1,"trial_type":"image-button-response","trial_index":101,"time_elapsed":210495,"internal_node_id":"0.0-4.0-0.47","subject_id":"616987b7d5bd3be0ecf4310e","study_id":"6197b3f67c2b5cd3b6d9596a","session_id":"619be3218b9b69f2f085dbda","condition":"contingent","relevant_dimensions":["wings","pattern"],"bee_group":{"antennae":"X","wings":"1","pattern":"D","legs":"X"},"action":"avoid","summary":"good-avoid","bonus":0.6000000000000005},{"rt":267,"stimulus":"\n                    <p><b>Action: <em>avoid</em></b></p>\n                    <p>This is the bee that you just saw.</p>\n                    <img src=\"bees-with-color/bee-B1DM.svg\" width=\"200\">\n                    <p><br>Your bonus pay is unchanged, and remains at $0.46.</p>\n            ","response":0,"trial_type":"html-button-response","trial_index":102,"time_elapsed":210763,"internal_node_id":"0.0-4.0-1.47","subject_id":"616987b7d5bd3be0ecf4310e","study_id":"6197b3f67c2b5cd3b6d9596a","session_id":"619be3218b9b69f2f085dbda","condition":"contingent","relevant_dimensions":["wings","pattern"],"bee_group":{"antennae":"X","wings":"1","pattern":"D","legs":"X"},"bonus":0.6000000000000005},{"rt":1206.8999999985099,"stimulus":"bees-with-color/bee-A1DF.svg","response":0,"trial_type":"image-button-response","trial_index":103,"time_elapsed":211971,"internal_node_id":"0.0-4.0-0.48","subject_id":"616987b7d5bd3be0ecf4310e","study_id":"6197b3f67c2b5cd3b6d9596a","session_id":"619be3218b9b69f2f085dbda","condition":"contingent","relevant_dimensions":["wings","pattern"],"bee_group":{"antennae":"X","wings":"1","pattern":"D","legs":"X"},"action":"harvest","summary":"bad-harvest","bonus":0.6000000000000005},{"rt":762.9000000022352,"stimulus":"\n                    <p><b>Action: <em>harvest</em></b></p>\n                    <p>This is the bee that you just saw.</p>\n                    <img src=\"bees-with-color/bee-A1DF.svg\" width=\"200\">\n                    <p><span class=\"redText\">Bad choice, the bee was angry.</span><br><b>You have been stung!</b><br>Your pay has been decreased by $0.10. Your bonus pay is now $0.36.</p>\n            ","response":0,"trial_type":"html-button-response","trial_index":104,"time_elapsed":212735,"internal_node_id":"0.0-4.0-1.48","subject_id":"616987b7d5bd3be0ecf4310e","study_id":"6197b3f67c2b5cd3b6d9596a","session_id":"619be3218b9b69f2f085dbda","condition":"contingent","relevant_dimensions":["wings","pattern"],"bee_group":{"antennae":"X","wings":"1","pattern":"D","legs":"X"},"bonus":0.6000000000000005},{"rt":692,"stimulus":"bees-with-color/bee-B2SM.svg","response":1,"trial_type":"image-button-response","trial_index":105,"time_elapsed":213428,"internal_node_id":"0.0-4.0-0.49","subject_id":"616987b7d5bd3be0ecf4310e","study_id":"6197b3f67c2b5cd3b6d9596a","session_id":"619be3218b9b69f2f085dbda","condition":"contingent","relevant_dimensions":["wings","pattern"],"bee_group":{"antennae":"X","wings":"1","pattern":"D","legs":"X"},"action":"avoid","summary":"bad-avoid","bonus":0.6000000000000005},{"rt":383.5999999977648,"stimulus":"\n                    <p><b>Action: <em>avoid</em></b></p>\n                    <p>This is the bee that you just saw.</p>\n                    <img src=\"bees-with-color/bee-B2SM.svg\" width=\"200\">\n                    <p><br>Your bonus pay is unchanged, and remains at $0.36.</p>\n            ","response":0,"trial_type":"html-button-response","trial_index":106,"time_elapsed":213813,"internal_node_id":"0.0-4.0-1.49","subject_id":"616987b7d5bd3be0ecf4310e","study_id":"6197b3f67c2b5cd3b6d9596a","session_id":"619be3218b9b69f2f085dbda","condition":"contingent","relevant_dimensions":["wings","pattern"],"bee_group":{"antennae":"X","wings":"1","pattern":"D","legs":"X"},"bonus":0.6000000000000005},{"rt":791.1000000014901,"stimulus":"bees-with-color/bee-A2DF.svg","response":1,"trial_type":"image-button-response","trial_index":107,"time_elapsed":214605,"internal_node_id":"0.0-4.0-0.50","subject_id":"616987b7d5bd3be0ecf4310e","study_id":"6197b3f67c2b5cd3b6d9596a","session_id":"619be3218b9b69f2f085dbda","condition":"contingent","relevant_dimensions":["wings","pattern"],"bee_group":{"antennae":"X","wings":"1","pattern":"D","legs":"X"},"action":"avoid","summary":"bad-avoid","bonus":0.6000000000000005},{"rt":304.69999999925494,"stimulus":"\n                    <p><b>Action: <em>avoid</em></b></p>\n                    <p>This is the bee that you just saw.</p>\n                    <img src=\"bees-with-color/bee-A2DF.svg\" width=\"200\">\n                    <p><br>Your bonus pay is unchanged, and remains at $0.36.</p>\n            ","response":0,"trial_type":"html-button-response","trial_index":108,"time_elapsed":214911,"internal_node_id":"0.0-4.0-1.50","subject_id":"616987b7d5bd3be0ecf4310e","study_id":"6197b3f67c2b5cd3b6d9596a","session_id":"619be3218b9b69f2f085dbda","condition":"contingent","relevant_dimensions":["wings","pattern"],"bee_group":{"antennae":"X","wings":"1","pattern":"D","legs":"X"},"bonus":0.6000000000000005},{"rt":1194.199999999255,"stimulus":"bees-with-color/bee-A2SF.svg","response":1,"trial_type":"image-button-response","trial_index":109,"time_elapsed":216106,"internal_node_id":"0.0-4.0-0.51","subject_id":"616987b7d5bd3be0ecf4310e","study_id":"6197b3f67c2b5cd3b6d9596a","session_id":"619be3218b9b69f2f085dbda","condition":"contingent","relevant_dimensions":["wings","pattern"],"bee_group":{"antennae":"X","wings":"1","pattern":"D","legs":"X"},"action":"avoid","summary":"bad-avoid","bonus":0.6000000000000005},{"rt":539.8999999985099,"stimulus":"\n                    <p><b>Action: <em>avoid</em></b></p>\n                    <p>This is the bee that you just saw.</p>\n                    <img src=\"bees-with-color/bee-A2SF.svg\" width=\"200\">\n                    <p><br>Your bonus pay is unchanged, and remains at $0.36.</p>\n            ","response":0,"trial_type":"html-button-response","trial_index":110,"time_elapsed":216647,"internal_node_id":"0.0-4.0-1.51","subject_id":"616987b7d5bd3be0ecf4310e","study_id":"6197b3f67c2b5cd3b6d9596a","session_id":"619be3218b9b69f2f085dbda","condition":"contingent","relevant_dimensions":["wings","pattern"],"bee_group":{"antennae":"X","wings":"1","pattern":"D","legs":"X"},"bonus":0.6000000000000005},{"rt":759.8999999985099,"stimulus":"bees-with-color/bee-A2DM.svg","response":1,"trial_type":"image-button-response","trial_index":111,"time_elapsed":217408,"internal_node_id":"0.0-4.0-0.52","subject_id":"616987b7d5bd3be0ecf4310e","study_id":"6197b3f67c2b5cd3b6d9596a","session_id":"619be3218b9b69f2f085dbda","condition":"contingent","relevant_dimensions":["wings","pattern"],"bee_group":{"antennae":"X","wings":"1","pattern":"D","legs":"X"},"action":"avoid","summary":"bad-avoid","bonus":0.6000000000000005},{"rt":351.8999999985099,"stimulus":"\n                    <p><b>Action: <em>avoid</em></b></p>\n                    <p>This is the bee that you just saw.</p>\n                    <img src=\"bees-with-color/bee-A2DM.svg\" width=\"200\">\n                    <p><br>Your bonus pay is unchanged, and remains at $0.36.</p>\n            ","response":0,"trial_type":"html-button-response","trial_index":112,"time_elapsed":217761,"internal_node_id":"0.0-4.0-1.52","subject_id":"616987b7d5bd3be0ecf4310e","study_id":"6197b3f67c2b5cd3b6d9596a","session_id":"619be3218b9b69f2f085dbda","condition":"contingent","relevant_dimensions":["wings","pattern"],"bee_group":{"antennae":"X","wings":"1","pattern":"D","legs":"X"},"bonus":0.6000000000000005},{"rt":661.1000000014901,"stimulus":"bees-with-color/bee-B2DM.svg","response":1,"trial_type":"image-button-response","trial_index":113,"time_elapsed":218423,"internal_node_id":"0.0-4.0-0.53","subject_id":"616987b7d5bd3be0ecf4310e","study_id":"6197b3f67c2b5cd3b6d9596a","session_id":"619be3218b9b69f2f085dbda","condition":"contingent","relevant_dimensions":["wings","pattern"],"bee_group":{"antennae":"X","wings":"1","pattern":"D","legs":"X"},"action":"avoid","summary":"bad-avoid","bonus":0.6000000000000005},{"rt":264,"stimulus":"\n                    <p><b>Action: <em>avoid</em></b></p>\n                    <p>This is the bee that you just saw.</p>\n                    <img src=\"bees-with-color/bee-B2DM.svg\" width=\"200\">\n                    <p><br>Your bonus pay is unchanged, and remains at $0.36.</p>\n            ","response":0,"trial_type":"html-button-response","trial_index":114,"time_elapsed":218688,"internal_node_id":"0.0-4.0-1.53","subject_id":"616987b7d5bd3be0ecf4310e","study_id":"6197b3f67c2b5cd3b6d9596a","session_id":"619be3218b9b69f2f085dbda","condition":"contingent","relevant_dimensions":["wings","pattern"],"bee_group":{"antennae":"X","wings":"1","pattern":"D","legs":"X"},"bonus":0.6000000000000005},{"rt":909.1000000014901,"stimulus":"bees-with-color/bee-B1SF.svg","response":0,"trial_type":"image-button-response","trial_index":115,"time_elapsed":219598,"internal_node_id":"0.0-4.0-0.54","subject_id":"616987b7d5bd3be0ecf4310e","study_id":"6197b3f67c2b5cd3b6d9596a","session_id":"619be3218b9b69f2f085dbda","condition":"contingent","relevant_dimensions":["wings","pattern"],"bee_group":{"antennae":"X","wings":"1","pattern":"D","legs":"X"},"action":"harvest","summary":"good-harvest","bonus":0.6000000000000005},{"rt":354.1000000014901,"stimulus":"\n                    <p><b>Action: <em>harvest</em></b></p>\n                    <p>This is the bee that you just saw.</p>\n                    <img src=\"bees-with-color/bee-B1SF.svg\" width=\"200\">\n                    <p><span class=\"greenText\"><b>Successful harvest!</b></span><br>Your pay has increased by $0.02. Your bonus pay is now $0.38.</p>\n            ","response":0,"trial_type":"html-button-response","trial_index":116,"time_elapsed":219953,"internal_node_id":"0.0-4.0-1.54","subject_id":"616987b7d5bd3be0ecf4310e","study_id":"6197b3f67c2b5cd3b6d9596a","session_id":"619be3218b9b69f2f085dbda","condition":"contingent","relevant_dimensions":["wings","pattern"],"bee_group":{"antennae":"X","wings":"1","pattern":"D","legs":"X"},"bonus":0.6000000000000005},{"rt":1336.1000000014901,"stimulus":"bees-with-color/bee-B1DF.svg","response":1,"trial_type":"image-button-response","trial_index":117,"time_elapsed":221290,"internal_node_id":"0.0-4.0-0.55","subject_id":"616987b7d5bd3be0ecf4310e","study_id":"6197b3f67c2b5cd3b6d9596a","session_id":"619be3218b9b69f2f085dbda","condition":"contingent","relevant_dimensions":["wings","pattern"],"bee_group":{"antennae":"X","wings":"1","pattern":"D","legs":"X"},"action":"avoid","summary":"good-avoid","bonus":0.6000000000000005},{"rt":284.8999999985099,"stimulus":"\n                    <p><b>Action: <em>avoid</em></b></p>\n                    <p>This is the bee that you just saw.</p>\n                    <img src=\"bees-with-color/bee-B1DF.svg\" width=\"200\">\n                    <p><br>Your bonus pay is unchanged, and remains at $0.38.</p>\n            ","response":0,"trial_type":"html-button-response","trial_index":118,"time_elapsed":221576,"internal_node_id":"0.0-4.0-1.55","subject_id":"616987b7d5bd3be0ecf4310e","study_id":"6197b3f67c2b5cd3b6d9596a","session_id":"619be3218b9b69f2f085dbda","condition":"contingent","relevant_dimensions":["wings","pattern"],"bee_group":{"antennae":"X","wings":"1","pattern":"D","legs":"X"},"bonus":0.6000000000000005},{"rt":927,"stimulus":"bees-with-color/bee-B2SF.svg","response":1,"trial_type":"image-button-response","trial_index":119,"time_elapsed":222504,"internal_node_id":"0.0-4.0-0.56","subject_id":"616987b7d5bd3be0ecf4310e","study_id":"6197b3f67c2b5cd3b6d9596a","session_id":"619be3218b9b69f2f085dbda","condition":"contingent","relevant_dimensions":["wings","pattern"],"bee_group":{"antennae":"X","wings":"1","pattern":"D","legs":"X"},"action":"avoid","summary":"bad-avoid","bonus":0.6000000000000005},{"rt":286.8999999985099,"stimulus":"\n                    <p><b>Action: <em>avoid</em></b></p>\n                    <p>This is the bee that you just saw.</p>\n                    <img src=\"bees-with-color/bee-B2SF.svg\" width=\"200\">\n                    <p><br>Your bonus pay is unchanged, and remains at $0.38.</p>\n            ","response":0,"trial_type":"html-button-response","trial_index":120,"time_elapsed":222792,"internal_node_id":"0.0-4.0-1.56","subject_id":"616987b7d5bd3be0ecf4310e","study_id":"6197b3f67c2b5cd3b6d9596a","session_id":"619be3218b9b69f2f085dbda","condition":"contingent","relevant_dimensions":["wings","pattern"],"bee_group":{"antennae":"X","wings":"1","pattern":"D","legs":"X"},"bonus":0.6000000000000005},{"rt":1871,"stimulus":"bees-with-color/bee-A1SM.svg","response":0,"trial_type":"image-button-response","trial_index":121,"time_elapsed":224664,"internal_node_id":"0.0-4.0-0.57","subject_id":"616987b7d5bd3be0ecf4310e","study_id":"6197b3f67c2b5cd3b6d9596a","session_id":"619be3218b9b69f2f085dbda","condition":"contingent","relevant_dimensions":["wings","pattern"],"bee_group":{"antennae":"X","wings":"1","pattern":"D","legs":"X"},"action":"harvest","summary":"good-harvest","bonus":0.6000000000000005},{"rt":491.79999999701977,"stimulus":"\n                    <p><b>Action: <em>harvest</em></b></p>\n                    <p>This is the bee that you just saw.</p>\n                    <img src=\"bees-with-color/bee-A1SM.svg\" width=\"200\">\n                    <p><span class=\"greenText\"><b>Successful harvest!</b></span><br>Your pay has increased by $0.02. Your bonus pay is now $0.40.</p>\n            ","response":0,"trial_type":"html-button-response","trial_index":122,"time_elapsed":225157,"internal_node_id":"0.0-4.0-1.57","subject_id":"616987b7d5bd3be0ecf4310e","study_id":"6197b3f67c2b5cd3b6d9596a","session_id":"619be3218b9b69f2f085dbda","condition":"contingent","relevant_dimensions":["wings","pattern"],"bee_group":{"antennae":"X","wings":"1","pattern":"D","legs":"X"},"bonus":0.6000000000000005},{"rt":987.0999999977648,"stimulus":"bees-with-color/bee-A2SM.svg","response":1,"trial_type":"image-button-response","trial_index":123,"time_elapsed":226145,"internal_node_id":"0.0-4.0-0.58","subject_id":"616987b7d5bd3be0ecf4310e","study_id":"6197b3f67c2b5cd3b6d9596a","session_id":"619be3218b9b69f2f085dbda","condition":"contingent","relevant_dimensions":["wings","pattern"],"bee_group":{"antennae":"X","wings":"1","pattern":"D","legs":"X"},"action":"avoid","summary":"bad-avoid","bonus":0.6000000000000005},{"rt":626.8999999985099,"stimulus":"\n                    <p><b>Action: <em>avoid</em></b></p>\n                    <p>This is the bee that you just saw.</p>\n                    <img src=\"bees-with-color/bee-A2SM.svg\" width=\"200\">\n                    <p><br>Your bonus pay is unchanged, and remains at $0.40.</p>\n            ","response":0,"trial_type":"html-button-response","trial_index":124,"time_elapsed":226773,"internal_node_id":"0.0-4.0-1.58","subject_id":"616987b7d5bd3be0ecf4310e","study_id":"6197b3f67c2b5cd3b6d9596a","session_id":"619be3218b9b69f2f085dbda","condition":"contingent","relevant_dimensions":["wings","pattern"],"bee_group":{"antennae":"X","wings":"1","pattern":"D","legs":"X"},"bonus":0.6000000000000005},{"rt":914,"stimulus":"bees-with-color/bee-B2DF.svg","response":1,"trial_type":"image-button-response","trial_index":125,"time_elapsed":227688,"internal_node_id":"0.0-4.0-0.59","subject_id":"616987b7d5bd3be0ecf4310e","study_id":"6197b3f67c2b5cd3b6d9596a","session_id":"619be3218b9b69f2f085dbda","condition":"contingent","relevant_dimensions":["wings","pattern"],"bee_group":{"antennae":"X","wings":"1","pattern":"D","legs":"X"},"action":"avoid","summary":"bad-avoid","bonus":0.6000000000000005},{"rt":620.6999999992549,"stimulus":"\n                    <p><b>Action: <em>avoid</em></b></p>\n                    <p>This is the bee that you just saw.</p>\n                    <img src=\"bees-with-color/bee-B2DF.svg\" width=\"200\">\n                    <p><br>Your bonus pay is unchanged, and remains at $0.40.</p>\n            ","response":0,"trial_type":"html-button-response","trial_index":126,"time_elapsed":228310,"internal_node_id":"0.0-4.0-1.59","subject_id":"616987b7d5bd3be0ecf4310e","study_id":"6197b3f67c2b5cd3b6d9596a","session_id":"619be3218b9b69f2f085dbda","condition":"contingent","relevant_dimensions":["wings","pattern"],"bee_group":{"antennae":"X","wings":"1","pattern":"D","legs":"X"},"bonus":0.6000000000000005},{"rt":801.7999999970198,"stimulus":"bees-with-color/bee-A1SF.svg","response":0,"trial_type":"image-button-response","trial_index":127,"time_elapsed":229113,"internal_node_id":"0.0-4.0-0.60","subject_id":"616987b7d5bd3be0ecf4310e","study_id":"6197b3f67c2b5cd3b6d9596a","session_id":"619be3218b9b69f2f085dbda","condition":"contingent","relevant_dimensions":["wings","pattern"],"bee_group":{"antennae":"X","wings":"1","pattern":"D","legs":"X"},"action":"harvest","summary":"good-harvest","bonus":0.6000000000000005},{"rt":311.30000000074506,"stimulus":"\n                    <p><b>Action: <em>harvest</em></b></p>\n                    <p>This is the bee that you just saw.</p>\n                    <img src=\"bees-with-color/bee-A1SF.svg\" width=\"200\">\n                    <p><span class=\"greenText\"><b>Successful harvest!</b></span><br>Your pay has increased by $0.02. Your bonus pay is now $0.42.</p>\n            ","response":0,"trial_type":"html-button-response","trial_index":128,"time_elapsed":229426,"internal_node_id":"0.0-4.0-1.60","subject_id":"616987b7d5bd3be0ecf4310e","study_id":"6197b3f67c2b5cd3b6d9596a","session_id":"619be3218b9b69f2f085dbda","condition":"contingent","relevant_dimensions":["wings","pattern"],"bee_group":{"antennae":"X","wings":"1","pattern":"D","legs":"X"},"bonus":0.6000000000000005},{"rt":685.3000000007451,"stimulus":"bees-with-color/bee-A1DM.svg","response":1,"trial_type":"image-button-response","trial_index":129,"time_elapsed":230112,"internal_node_id":"0.0-4.0-0.61","subject_id":"616987b7d5bd3be0ecf4310e","study_id":"6197b3f67c2b5cd3b6d9596a","session_id":"619be3218b9b69f2f085dbda","condition":"contingent","relevant_dimensions":["wings","pattern"],"bee_group":{"antennae":"X","wings":"1","pattern":"D","legs":"X"},"action":"avoid","summary":"good-avoid","bonus":0.6000000000000005},{"rt":277.0999999977648,"stimulus":"\n                    <p><b>Action: <em>avoid</em></b></p>\n                    <p>This is the bee that you just saw.</p>\n                    <img src=\"bees-with-color/bee-A1DM.svg\" width=\"200\">\n                    <p><br>Your bonus pay is unchanged, and remains at $0.42.</p>\n            ","response":0,"trial_type":"html-button-response","trial_index":130,"time_elapsed":230391,"internal_node_id":"0.0-4.0-1.61","subject_id":"616987b7d5bd3be0ecf4310e","study_id":"6197b3f67c2b5cd3b6d9596a","session_id":"619be3218b9b69f2f085dbda","condition":"contingent","relevant_dimensions":["wings","pattern"],"bee_group":{"antennae":"X","wings":"1","pattern":"D","legs":"X"},"bonus":0.6000000000000005},{"rt":1083.5,"stimulus":"bees-with-color/bee-B1DM.svg","response":1,"trial_type":"image-button-response","trial_index":131,"time_elapsed":231475,"internal_node_id":"0.0-4.0-0.62","subject_id":"616987b7d5bd3be0ecf4310e","study_id":"6197b3f67c2b5cd3b6d9596a","session_id":"619be3218b9b69f2f085dbda","condition":"contingent","relevant_dimensions":["wings","pattern"],"bee_group":{"antennae":"X","wings":"1","pattern":"D","legs":"X"},"action":"avoid","summary":"good-avoid","bonus":0.6000000000000005},{"rt":274,"stimulus":"\n                    <p><b>Action: <em>avoid</em></b></p>\n                    <p>This is the bee that you just saw.</p>\n                    <img src=\"bees-with-color/bee-B1DM.svg\" width=\"200\">\n                    <p><br>Your bonus pay is unchanged, and remains at $0.42.</p>\n            ","response":0,"trial_type":"html-button-response","trial_index":132,"time_elapsed":231750,"internal_node_id":"0.0-4.0-1.62","subject_id":"616987b7d5bd3be0ecf4310e","study_id":"6197b3f67c2b5cd3b6d9596a","session_id":"619be3218b9b69f2f085dbda","condition":"contingent","relevant_dimensions":["wings","pattern"],"bee_group":{"antennae":"X","wings":"1","pattern":"D","legs":"X"},"bonus":0.6000000000000005},{"rt":1446.699999999255,"stimulus":"bees-with-color/bee-B1SM.svg","response":0,"trial_type":"image-button-response","trial_index":133,"time_elapsed":233199,"internal_node_id":"0.0-4.0-0.63","subject_id":"616987b7d5bd3be0ecf4310e","study_id":"6197b3f67c2b5cd3b6d9596a","session_id":"619be3218b9b69f2f085dbda","condition":"contingent","relevant_dimensions":["wings","pattern"],"bee_group":{"antennae":"X","wings":"1","pattern":"D","legs":"X"},"action":"harvest","summary":"good-harvest","bonus":0.6000000000000005},{"rt":467.80000000074506,"stimulus":"\n                    <p><b>Action: <em>harvest</em></b></p>\n                    <p>This is the bee that you just saw.</p>\n                    <img src=\"bees-with-color/bee-B1SM.svg\" width=\"200\">\n                    <p><span class=\"greenText\"><b>Successful harvest!</b></span><br>Your pay has increased by $0.02. Your bonus pay is now $0.44.</p>\n            ","response":0,"trial_type":"html-button-response","trial_index":134,"time_elapsed":233668,"internal_node_id":"0.0-4.0-1.63","subject_id":"616987b7d5bd3be0ecf4310e","study_id":"6197b3f67c2b5cd3b6d9596a","session_id":"619be3218b9b69f2f085dbda","condition":"contingent","relevant_dimensions":["wings","pattern"],"bee_group":{"antennae":"X","wings":"1","pattern":"D","legs":"X"},"bonus":0.6000000000000005},{"rt":5284.300000000745,"stimulus":"You have completed the first part of this experiment.<br><br>You will now begin a shorter second part, in which you will receive no feedback.<br>The same rules regarding bonus pay apply.<br><br>Press any key to begin.","response":"arrowright","trial_type":"html-keyboard-response","trial_index":135,"time_elapsed":238953,"internal_node_id":"0.0-5.0","subject_id":"616987b7d5bd3be0ecf4310e","study_id":"6197b3f67c2b5cd3b6d9596a","session_id":"619be3218b9b69f2f085dbda","condition":"contingent","relevant_dimensions":["wings","pattern"],"bee_group":{"antennae":"X","wings":"1","pattern":"D","legs":"X"},"bonus":0.6000000000000005},{"rt":3112.7999999970198,"stimulus":"bees-with-color/bee-A1DF.svg","response":1,"trial_type":"image-button-response","trial_index":136,"time_elapsed":242075,"internal_node_id":"0.0-6.0-0.0","subject_id":"616987b7d5bd3be0ecf4310e","study_id":"6197b3f67c2b5cd3b6d9596a","session_id":"619be3218b9b69f2f085dbda","condition":"contingent","relevant_dimensions":["wings","pattern"],"bee_group":{"antennae":"X","wings":"1","pattern":"D","legs":"X"},"bonus":0.6000000000000005},{"rt":2905.2999999970198,"stimulus":"bees-with-color/bee-B2DF.svg","response":1,"trial_type":"image-button-response","trial_index":137,"time_elapsed":244982,"internal_node_id":"0.0-6.0-0.1","subject_id":"616987b7d5bd3be0ecf4310e","study_id":"6197b3f67c2b5cd3b6d9596a","session_id":"619be3218b9b69f2f085dbda","condition":"contingent","relevant_dimensions":["wings","pattern"],"bee_group":{"antennae":"X","wings":"1","pattern":"D","legs":"X"},"bonus":0.6000000000000005},{"rt":1202.300000000745,"stimulus":"bees-with-color/bee-B1SM.svg","response":0,"trial_type":"image-button-response","trial_index":138,"time_elapsed":246186,"internal_node_id":"0.0-6.0-0.2","subject_id":"616987b7d5bd3be0ecf4310e","study_id":"6197b3f67c2b5cd3b6d9596a","session_id":"619be3218b9b69f2f085dbda","condition":"contingent","relevant_dimensions":["wings","pattern"],"bee_group":{"antennae":"X","wings":"1","pattern":"D","legs":"X"},"bonus":0.6000000000000005},{"rt":835.1999999992549,"stimulus":"bees-with-color/bee-A2DM.svg","response":1,"trial_type":"image-button-response","trial_index":139,"time_elapsed":247023,"internal_node_id":"0.0-6.0-0.3","subject_id":"616987b7d5bd3be0ecf4310e","study_id":"6197b3f67c2b5cd3b6d9596a","session_id":"619be3218b9b69f2f085dbda","condition":"contingent","relevant_dimensions":["wings","pattern"],"bee_group":{"antennae":"X","wings":"1","pattern":"D","legs":"X"},"bonus":0.6000000000000005},{"rt":701.6999999992549,"stimulus":"bees-with-color/bee-A1SF.svg","response":0,"trial_type":"image-button-response","trial_index":140,"time_elapsed":247726,"internal_node_id":"0.0-6.0-0.4","subject_id":"616987b7d5bd3be0ecf4310e","study_id":"6197b3f67c2b5cd3b6d9596a","session_id":"619be3218b9b69f2f085dbda","condition":"contingent","relevant_dimensions":["wings","pattern"],"bee_group":{"antennae":"X","wings":"1","pattern":"D","legs":"X"},"bonus":0.6000000000000005},{"rt":1987.699999999255,"stimulus":"bees-with-color/bee-B1SF.svg","response":0,"trial_type":"image-button-response","trial_index":141,"time_elapsed":249716,"internal_node_id":"0.0-6.0-0.5","subject_id":"616987b7d5bd3be0ecf4310e","study_id":"6197b3f67c2b5cd3b6d9596a","session_id":"619be3218b9b69f2f085dbda","condition":"contingent","relevant_dimensions":["wings","pattern"],"bee_group":{"antennae":"X","wings":"1","pattern":"D","legs":"X"},"bonus":0.6000000000000005},{"rt":649.7000000029802,"stimulus":"bees-with-color/bee-A1DM.svg","response":1,"trial_type":"image-button-response","trial_index":142,"time_elapsed":250367,"internal_node_id":"0.0-6.0-0.6","subject_id":"616987b7d5bd3be0ecf4310e","study_id":"6197b3f67c2b5cd3b6d9596a","session_id":"619be3218b9b69f2f085dbda","condition":"contingent","relevant_dimensions":["wings","pattern"],"bee_group":{"antennae":"X","wings":"1","pattern":"D","legs":"X"},"bonus":0.6000000000000005},{"rt":872,"stimulus":"bees-with-color/bee-A2SF.svg","response":1,"trial_type":"image-button-response","trial_index":143,"time_elapsed":251240,"internal_node_id":"0.0-6.0-0.7","subject_id":"616987b7d5bd3be0ecf4310e","study_id":"6197b3f67c2b5cd3b6d9596a","session_id":"619be3218b9b69f2f085dbda","condition":"contingent","relevant_dimensions":["wings","pattern"],"bee_group":{"antennae":"X","wings":"1","pattern":"D","legs":"X"},"bonus":0.6000000000000005},{"rt":696.3999999985099,"stimulus":"bees-with-color/bee-B1DM.svg","response":1,"trial_type":"image-button-response","trial_index":144,"time_elapsed":251938,"internal_node_id":"0.0-6.0-0.8","subject_id":"616987b7d5bd3be0ecf4310e","study_id":"6197b3f67c2b5cd3b6d9596a","session_id":"619be3218b9b69f2f085dbda","condition":"contingent","relevant_dimensions":["wings","pattern"],"bee_group":{"antennae":"X","wings":"1","pattern":"D","legs":"X"},"bonus":0.6000000000000005},{"rt":413.6000000014901,"stimulus":"bees-with-color/bee-B2DM.svg","response":1,"trial_type":"image-button-response","trial_index":145,"time_elapsed":252354,"internal_node_id":"0.0-6.0-0.9","subject_id":"616987b7d5bd3be0ecf4310e","study_id":"6197b3f67c2b5cd3b6d9596a","session_id":"619be3218b9b69f2f085dbda","condition":"contingent","relevant_dimensions":["wings","pattern"],"bee_group":{"antennae":"X","wings":"1","pattern":"D","legs":"X"},"bonus":0.6000000000000005},{"rt":1137.4000000022352,"stimulus":"bees-with-color/bee-A1SM.svg","response":0,"trial_type":"image-button-response","trial_index":146,"time_elapsed":253493,"internal_node_id":"0.0-6.0-0.10","subject_id":"616987b7d5bd3be0ecf4310e","study_id":"6197b3f67c2b5cd3b6d9596a","session_id":"619be3218b9b69f2f085dbda","condition":"contingent","relevant_dimensions":["wings","pattern"],"bee_group":{"antennae":"X","wings":"1","pattern":"D","legs":"X"},"bonus":0.6000000000000005},{"rt":555.0999999977648,"stimulus":"bees-with-color/bee-B2SM.svg","response":1,"trial_type":"image-button-response","trial_index":147,"time_elapsed":254049,"internal_node_id":"0.0-6.0-0.11","subject_id":"616987b7d5bd3be0ecf4310e","study_id":"6197b3f67c2b5cd3b6d9596a","session_id":"619be3218b9b69f2f085dbda","condition":"contingent","relevant_dimensions":["wings","pattern"],"bee_group":{"antennae":"X","wings":"1","pattern":"D","legs":"X"},"bonus":0.6000000000000005},{"rt":745,"stimulus":"bees-with-color/bee-A2DF.svg","response":1,"trial_type":"image-button-response","trial_index":148,"time_elapsed":254796,"internal_node_id":"0.0-6.0-0.12","subject_id":"616987b7d5bd3be0ecf4310e","study_id":"6197b3f67c2b5cd3b6d9596a","session_id":"619be3218b9b69f2f085dbda","condition":"contingent","relevant_dimensions":["wings","pattern"],"bee_group":{"antennae":"X","wings":"1","pattern":"D","legs":"X"},"bonus":0.6000000000000005},{"rt":932.6999999992549,"stimulus":"bees-with-color/bee-B2SF.svg","response":1,"trial_type":"image-button-response","trial_index":149,"time_elapsed":255730,"internal_node_id":"0.0-6.0-0.13","subject_id":"616987b7d5bd3be0ecf4310e","study_id":"6197b3f67c2b5cd3b6d9596a","session_id":"619be3218b9b69f2f085dbda","condition":"contingent","relevant_dimensions":["wings","pattern"],"bee_group":{"antennae":"X","wings":"1","pattern":"D","legs":"X"},"bonus":0.6000000000000005},{"rt":662.6000000014901,"stimulus":"bees-with-color/bee-B1DF.svg","response":1,"trial_type":"image-button-response","trial_index":150,"time_elapsed":256395,"internal_node_id":"0.0-6.0-0.14","subject_id":"616987b7d5bd3be0ecf4310e","study_id":"6197b3f67c2b5cd3b6d9596a","session_id":"619be3218b9b69f2f085dbda","condition":"contingent","relevant_dimensions":["wings","pattern"],"bee_group":{"antennae":"X","wings":"1","pattern":"D","legs":"X"},"bonus":0.6000000000000005},{"rt":515.3999999985099,"stimulus":"bees-with-color/bee-A2SM.svg","response":1,"trial_type":"image-button-response","trial_index":151,"time_elapsed":256911,"internal_node_id":"0.0-6.0-0.15","subject_id":"616987b7d5bd3be0ecf4310e","study_id":"6197b3f67c2b5cd3b6d9596a","session_id":"619be3218b9b69f2f085dbda","condition":"contingent","relevant_dimensions":["wings","pattern"],"bee_group":{"antennae":"X","wings":"1","pattern":"D","legs":"X"},"bonus":0.6000000000000005},{"rt":1060.5999999977648,"stimulus":"bees-with-color/bee-B1DM.svg","response":1,"trial_type":"image-button-response","trial_index":152,"time_elapsed":257973,"internal_node_id":"0.0-6.0-0.16","subject_id":"616987b7d5bd3be0ecf4310e","study_id":"6197b3f67c2b5cd3b6d9596a","session_id":"619be3218b9b69f2f085dbda","condition":"contingent","relevant_dimensions":["wings","pattern"],"bee_group":{"antennae":"X","wings":"1","pattern":"D","legs":"X"},"bonus":0.6000000000000005},{"rt":519.1999999992549,"stimulus":"bees-with-color/bee-B2SF.svg","response":1,"trial_type":"image-button-response","trial_index":153,"time_elapsed":258494,"internal_node_id":"0.0-6.0-0.17","subject_id":"616987b7d5bd3be0ecf4310e","study_id":"6197b3f67c2b5cd3b6d9596a","session_id":"619be3218b9b69f2f085dbda","condition":"contingent","relevant_dimensions":["wings","pattern"],"bee_group":{"antennae":"X","wings":"1","pattern":"D","legs":"X"},"bonus":0.6000000000000005},{"rt":732.1999999992549,"stimulus":"bees-with-color/bee-B1DF.svg","response":1,"trial_type":"image-button-response","trial_index":154,"time_elapsed":259227,"internal_node_id":"0.0-6.0-0.18","subject_id":"616987b7d5bd3be0ecf4310e","study_id":"6197b3f67c2b5cd3b6d9596a","session_id":"619be3218b9b69f2f085dbda","condition":"contingent","relevant_dimensions":["wings","pattern"],"bee_group":{"antennae":"X","wings":"1","pattern":"D","legs":"X"},"bonus":0.6000000000000005},{"rt":1391.9000000022352,"stimulus":"bees-with-color/bee-B1SM.svg","response":0,"trial_type":"image-button-response","trial_index":155,"time_elapsed":260620,"internal_node_id":"0.0-6.0-0.19","subject_id":"616987b7d5bd3be0ecf4310e","study_id":"6197b3f67c2b5cd3b6d9596a","session_id":"619be3218b9b69f2f085dbda","condition":"contingent","relevant_dimensions":["wings","pattern"],"bee_group":{"antennae":"X","wings":"1","pattern":"D","legs":"X"},"bonus":0.6000000000000005},{"rt":906,"stimulus":"bees-with-color/bee-B1SF.svg","response":0,"trial_type":"image-button-response","trial_index":156,"time_elapsed":261528,"internal_node_id":"0.0-6.0-0.20","subject_id":"616987b7d5bd3be0ecf4310e","study_id":"6197b3f67c2b5cd3b6d9596a","session_id":"619be3218b9b69f2f085dbda","condition":"contingent","relevant_dimensions":["wings","pattern"],"bee_group":{"antennae":"X","wings":"1","pattern":"D","legs":"X"},"bonus":0.6000000000000005},{"rt":1248.5999999977648,"stimulus":"bees-with-color/bee-A1SM.svg","response":0,"trial_type":"image-button-response","trial_index":157,"time_elapsed":262777,"internal_node_id":"0.0-6.0-0.21","subject_id":"616987b7d5bd3be0ecf4310e","study_id":"6197b3f67c2b5cd3b6d9596a","session_id":"619be3218b9b69f2f085dbda","condition":"contingent","relevant_dimensions":["wings","pattern"],"bee_group":{"antennae":"X","wings":"1","pattern":"D","legs":"X"},"bonus":0.6000000000000005},{"rt":783.6999999992549,"stimulus":"bees-with-color/bee-B2DF.svg","response":1,"trial_type":"image-button-response","trial_index":158,"time_elapsed":263562,"internal_node_id":"0.0-6.0-0.22","subject_id":"616987b7d5bd3be0ecf4310e","study_id":"6197b3f67c2b5cd3b6d9596a","session_id":"619be3218b9b69f2f085dbda","condition":"contingent","relevant_dimensions":["wings","pattern"],"bee_group":{"antennae":"X","wings":"1","pattern":"D","legs":"X"},"bonus":0.6000000000000005},{"rt":978.6999999992549,"stimulus":"bees-with-color/bee-A1SF.svg","response":0,"trial_type":"image-button-response","trial_index":159,"time_elapsed":264542,"internal_node_id":"0.0-6.0-0.23","subject_id":"616987b7d5bd3be0ecf4310e","study_id":"6197b3f67c2b5cd3b6d9596a","session_id":"619be3218b9b69f2f085dbda","condition":"contingent","relevant_dimensions":["wings","pattern"],"bee_group":{"antennae":"X","wings":"1","pattern":"D","legs":"X"},"bonus":0.6000000000000005},{"rt":524.6000000014901,"stimulus":"bees-with-color/bee-B2DM.svg","response":1,"trial_type":"image-button-response","trial_index":160,"time_elapsed":265068,"internal_node_id":"0.0-6.0-0.24","subject_id":"616987b7d5bd3be0ecf4310e","study_id":"6197b3f67c2b5cd3b6d9596a","session_id":"619be3218b9b69f2f085dbda","condition":"contingent","relevant_dimensions":["wings","pattern"],"bee_group":{"antennae":"X","wings":"1","pattern":"D","legs":"X"},"bonus":0.6000000000000005},{"rt":963.8999999985099,"stimulus":"bees-with-color/bee-A2SF.svg","response":1,"trial_type":"image-button-response","trial_index":161,"time_elapsed":266033,"internal_node_id":"0.0-6.0-0.25","subject_id":"616987b7d5bd3be0ecf4310e","study_id":"6197b3f67c2b5cd3b6d9596a","session_id":"619be3218b9b69f2f085dbda","condition":"contingent","relevant_dimensions":["wings","pattern"],"bee_group":{"antennae":"X","wings":"1","pattern":"D","legs":"X"},"bonus":0.6000000000000005},{"rt":505.69999999925494,"stimulus":"bees-with-color/bee-B2SM.svg","response":1,"trial_type":"image-button-response","trial_index":162,"time_elapsed":266541,"internal_node_id":"0.0-6.0-0.26","subject_id":"616987b7d5bd3be0ecf4310e","study_id":"6197b3f67c2b5cd3b6d9596a","session_id":"619be3218b9b69f2f085dbda","condition":"contingent","relevant_dimensions":["wings","pattern"],"bee_group":{"antennae":"X","wings":"1","pattern":"D","legs":"X"},"bonus":0.6000000000000005},{"rt":593.5,"stimulus":"bees-with-color/bee-A2DF.svg","response":1,"trial_type":"image-button-response","trial_index":163,"time_elapsed":267136,"internal_node_id":"0.0-6.0-0.27","subject_id":"616987b7d5bd3be0ecf4310e","study_id":"6197b3f67c2b5cd3b6d9596a","session_id":"619be3218b9b69f2f085dbda","condition":"contingent","relevant_dimensions":["wings","pattern"],"bee_group":{"antennae":"X","wings":"1","pattern":"D","legs":"X"},"bonus":0.6000000000000005},{"rt":2024.800000000745,"stimulus":"bees-with-color/bee-A1DF.svg","response":1,"trial_type":"image-button-response","trial_index":164,"time_elapsed":269161,"internal_node_id":"0.0-6.0-0.28","subject_id":"616987b7d5bd3be0ecf4310e","study_id":"6197b3f67c2b5cd3b6d9596a","session_id":"619be3218b9b69f2f085dbda","condition":"contingent","relevant_dimensions":["wings","pattern"],"bee_group":{"antennae":"X","wings":"1","pattern":"D","legs":"X"},"bonus":0.6000000000000005},{"rt":472.69999999925494,"stimulus":"bees-with-color/bee-A2DM.svg","response":1,"trial_type":"image-button-response","trial_index":165,"time_elapsed":269635,"internal_node_id":"0.0-6.0-0.29","subject_id":"616987b7d5bd3be0ecf4310e","study_id":"6197b3f67c2b5cd3b6d9596a","session_id":"619be3218b9b69f2f085dbda","condition":"contingent","relevant_dimensions":["wings","pattern"],"bee_group":{"antennae":"X","wings":"1","pattern":"D","legs":"X"},"bonus":0.6000000000000005},{"rt":1305.6000000014901,"stimulus":"bees-with-color/bee-A2SM.svg","response":1,"trial_type":"image-button-response","trial_index":166,"time_elapsed":270944,"internal_node_id":"0.0-6.0-0.30","subject_id":"616987b7d5bd3be0ecf4310e","study_id":"6197b3f67c2b5cd3b6d9596a","session_id":"619be3218b9b69f2f085dbda","condition":"contin