[{"success":true,"trial_type":"fullscreen","trial_index":0,"time_elapsed":3254,"internal_node_id":"0.0-0.0","subject_id":"5f575958009e1a1de016301e","study_id":"6197b3f67c2b5cd3b6d9596a","session_id":"6197b9eace8258cd1857ae3c","condition":"full-information","relevant_dimensions":["antennae","wings"],"bee_group":{"antennae":"B","wings":"1","pattern":"X","legs":"X"},"bonus":1.160000000000001},{"success":true,"timeout":false,"failed_images":[],"failed_audio":[],"failed_video":[],"trial_type":"preload","trial_index":1,"time_elapsed":4650,"internal_node_id":"0.0-1.0","subject_id":"5f575958009e1a1de016301e","study_id":"6197b3f67c2b5cd3b6d9596a","session_id":"6197b9eace8258cd1857ae3c","condition":"full-information","relevant_dimensions":["antennae","wings"],"bee_group":{"antennae":"B","wings":"1","pattern":"X","legs":"X"},"bonus":1.160000000000001},{"rt":2277.7999999999884,"stimulus":"Welcome! Press any key to begin.","response":" ","trial_type":"html-keyboard-response","trial_index":2,"time_elapsed":6929,"internal_node_id":"0.0-2.0","subject_id":"5f575958009e1a1de016301e","study_id":"6197b3f67c2b5cd3b6d9596a","session_id":"6197b9eace8258cd1857ae3c","condition":"full-information","relevant_dimensions":["antennae","wings"],"bee_group":{"antennae":"B","wings":"1","pattern":"X","legs":"X"},"bonus":1.160000000000001},{"view_history":[{"page_index":0,"viewing_time":5033.900000000023},{"page_index":1,"viewing_time":13166.099999999977},{"page_index":2,"viewing_time":9577.799999999988},{"page_index":3,"viewing_time":12262.100000000035},{"page_index":4,"viewing_time":9063.099999999977},{"page_index":5,"viewing_time":7171},{"page_index":6,"viewing_time":10268.900000000023},{"page_index":7,"viewing_time":3899},{"page_index":8,"viewing_time":2668},{"page_index":9,"viewing_time":1963.0999999999767},{"page_index":10,"viewing_time":1306.9000000000233},{"page_index":11,"viewing_time":11239.899999999965},{"page_index":12,"viewing_time":5659.100000000035},{"page_index":13,"viewing_time":1159},{"page_index":14,"viewing_time":2688.0999999999767}],"rt":97126.5,"trial_type":"instructions","trial_index":3,"time_elapsed":104055,"internal_node_id":"0.0-3.0-0.0","subject_id":"5f575958009e1a1de016301e","study_id":"6197b3f67c2b5cd3b6d9596a","session_id":"6197b9eace8258cd1857ae3c","condition":"full-information","relevant_dimensions":["antennae","wings"],"bee_group":{"antennae":"B","wings":"1","pattern":"X","legs":"X"},"bonus":1.160000000000001},{"rt":14306.5,"response":{"Q0":["Two or six legs","Stripes or spots on body","Single or double wings","Antennae or no antennae"]},"question_order":[0],"trial_type":"survey-multi-select","trial_index":4,"time_elapsed":118368,"internal_node_id":"0.0-3.0-1.0","subject_id":"5f575958009e1a1de016301e","study_id":"6197b3f67c2b5cd3b6d9596a","session_id":"6197b9eace8258cd1857ae3c","condition":"full-information","relevant_dimensions":["antennae","wings"],"bee_group":{"antennae":"B","wings":"1","pattern":"X","legs":"X"},"correct":true,"bonus":1.160000000000001},{"rt":20670.400000000023,"response":{"Q1":"No.","Q2":"Based on the four features of the bee.","Q3":"You learn if it was friendly or dangerous, but do not alter your bonus."},"question_order":[0,1,2],"trial_type":"survey-multi-choice","trial_index":5,"time_elapsed":139039,"internal_node_id":"0.0-3.0-2.0","subject_id":"5f575958009e1a1de016301e","study_id":"6197b3f67c2b5cd3b6d9596a","session_id":"6197b9eace8258cd1857ae3c","condition":"full-information","relevant_dimensions":["antennae","wings"],"bee_group":{"antennae":"B","wings":"1","pattern":"X","legs":"X"},"correct":true,"bonus":1.160000000000001},{"rt":3945.5999999999767,"stimulus":"<p>Congrats, you got everything right<br>When you're ready, click the button below to continue to the experiment.</p>","response":0,"trial_type":"html-button-response","trial_index":6,"time_elapsed":142986,"internal_node_id":"0.0-3.0-3.0","subject_id":"5f575958009e1a1de016301e","study_id":"6197b3f67c2b5cd3b6d9596a","session_id":"6197b9eace8258cd1857ae3c","condition":"full-information","relevant_dimensions":["antennae","wings"],"bee_group":{"antennae":"B","wings":"1","pattern":"X","legs":"X"},"bonus":1.160000000000001},{"rt":4489.099999999977,"stimulus":"bees-with-color/bee-B2DF.svg","response":0,"trial_type":"image-button-response","trial_index":7,"time_elapsed":147477,"internal_node_id":"0.0-4.0-0.0","subject_id":"5f575958009e1a1de016301e","study_id":"6197b3f67c2b5cd3b6d9596a","session_id":"6197b9eace8258cd1857ae3c","condition":"full-information","relevant_dimensions":["antennae","wings"],"bee_group":{"antennae":"B","wings":"1","pattern":"X","legs":"X"},"action":"harvest","summary":"good-harvest","bonus":1.160000000000001},{"rt":5736.099999999977,"stimulus":"\n                    <p><b>Action: <em>harvest</em></b></p>\n                    <p>This is the bee that you just saw.</p>\n                    <img src=\"bees-with-color/bee-B2DF.svg\" width=\"200\">\n                    <p><span class=\"greenText\"><b>Successful harvest!</b></span><br>Your pay has increased by $0.02. Your bonus pay is now $0.56.</p>\n            ","response":0,"trial_type":"html-button-response","trial_index":8,"time_elapsed":153215,"internal_node_id":"0.0-4.0-1.0","subject_id":"5f575958009e1a1de016301e","study_id":"6197b3f67c2b5cd3b6d9596a","session_id":"6197b9eace8258cd1857ae3c","condition":"full-information","relevant_dimensions":["antennae","wings"],"bee_group":{"antennae":"B","wings":"1","pattern":"X","legs":"X"},"bonus":1.160000000000001},{"rt":2126.5,"stimulus":"bees-with-color/bee-B1DF.svg","response":0,"trial_type":"image-button-response","trial_index":9,"time_elapsed":155343,"internal_node_id":"0.0-4.0-0.1","subject_id":"5f575958009e1a1de016301e","study_id":"6197b3f67c2b5cd3b6d9596a","session_id":"6197b9eace8258cd1857ae3c","condition":"full-information","relevant_dimensions":["antennae","wings"],"bee_group":{"antennae":"B","wings":"1","pattern":"X","legs":"X"},"action":"harvest","summary":"bad-harvest","bonus":1.160000000000001},{"rt":3408.7999999999884,"stimulus":"\n                    <p><b>Action: <em>harvest</em></b></p>\n                    <p>This is the bee that you just saw.</p>\n                    <img src=\"bees-with-color/bee-B1DF.svg\" width=\"200\">\n                    <p><span class=\"redText\">Bad choice, the bee was angry.</span><br><b>You have been stung!</b><br>Your pay has been decreased by $0.10. Your bonus pay is now $0.46.</p>\n            ","response":0,"trial_type":"html-button-response","trial_index":10,"time_elapsed":158753,"internal_node_id":"0.0-4.0-1.1","subject_id":"5f575958009e1a1de016301e","study_id":"6197b3f67c2b5cd3b6d9596a","session_id":"6197b9eace8258cd1857ae3c","condition":"full-information","relevant_dimensions":["antennae","wings"],"bee_group":{"antennae":"B","wings":"1","pattern":"X","legs":"X"},"bonus":1.160000000000001},{"rt":1598.5999999999767,"stimulus":"bees-with-color/bee-A2SM.svg","response":0,"trial_type":"image-button-response","trial_index":11,"time_elapsed":160353,"internal_node_id":"0.0-4.0-0.2","subject_id":"5f575958009e1a1de016301e","study_id":"6197b3f67c2b5cd3b6d9596a","session_id":"6197b9eace8258cd1857ae3c","condition":"full-information","relevant_dimensions":["antennae","wings"],"bee_group":{"antennae":"B","wings":"1","pattern":"X","legs":"X"},"action":"harvest","summary":"good-harvest","bonus":1.160000000000001},{"rt":1298.7999999999884,"stimulus":"\n                    <p><b>Action: <em>harvest</em></b></p>\n                    <p>This is the bee that you just saw.</p>\n                    <img src=\"bees-with-color/bee-A2SM.svg\" width=\"200\">\n                    <p><span class=\"greenText\"><b>Successful harvest!</b></span><br>Your pay has increased by $0.02. Your bonus pay is now $0.48.</p>\n            ","response":0,"trial_type":"html-button-response","trial_index":12,"time_elapsed":161653,"internal_node_id":"0.0-4.0-1.2","subject_id":"5f575958009e1a1de016301e","study_id":"6197b3f67c2b5cd3b6d9596a","session_id":"6197b9eace8258cd1857ae3c","condition":"full-information","relevant_dimensions":["antennae","wings"],"bee_group":{"antennae":"B","wings":"1","pattern":"X","legs":"X"},"bonus":1.160000000000001},{"rt":1253.7000000000116,"stimulus":"bees-with-color/bee-A2DM.svg","response":1,"trial_type":"image-button-response","trial_index":13,"time_elapsed":162908,"internal_node_id":"0.0-4.0-0.3","subject_id":"5f575958009e1a1de016301e","study_id":"6197b3f67c2b5cd3b6d9596a","session_id":"6197b9eace8258cd1857ae3c","condition":"full-information","relevant_dimensions":["antennae","wings"],"bee_group":{"antennae":"B","wings":"1","pattern":"X","legs":"X"},"action":"avoid","summary":"bad-avoid","bonus":1.160000000000001},{"rt":4080,"stimulus":"\n                    <p><b>Action: <em>avoid</em></b></p>\n                    <p>This is the bee that you just saw.</p>\n                    <img src=\"bees-with-color/bee-A2DM.svg\" width=\"200\">\n                    <p><span class=\"redText\">Bad choice,</span> the bee was friendly.<br>Your bonus pay is unchanged, and remains at $0.48.</p>\n            ","response":0,"trial_type":"html-button-response","trial_index":14,"time_elapsed":166989,"internal_node_id":"0.0-4.0-1.3","subject_id":"5f575958009e1a1de016301e","study_id":"6197b3f67c2b5cd3b6d9596a","session_id":"6197b9eace8258cd1857ae3c","condition":"full-information","relevant_dimensions":["antennae","wings"],"bee_group":{"antennae":"B","wings":"1","pattern":"X","legs":"X"},"bonus":1.160000000000001},{"rt":1196.899999999965,"stimulus":"bees-with-color/bee-A2SF.svg","response":0,"trial_type":"image-button-response","trial_index":15,"time_elapsed":168187,"internal_node_id":"0.0-4.0-0.4","subject_id":"5f575958009e1a1de016301e","study_id":"6197b3f67c2b5cd3b6d9596a","session_id":"6197b9eace8258cd1857ae3c","condition":"full-information","relevant_dimensions":["antennae","wings"],"bee_group":{"antennae":"B","wings":"1","pattern":"X","legs":"X"},"action":"harvest","summary":"good-harvest","bonus":1.160000000000001},{"rt":991.7999999999884,"stimulus":"\n                    <p><b>Action: <em>harvest</em></b></p>\n                    <p>This is the bee that you just saw.</p>\n                    <img src=\"bees-with-color/bee-A2SF.svg\" width=\"200\">\n                    <p><span class=\"greenText\"><b>Successful harvest!</b></span><br>Your pay has increased by $0.02. Your bonus pay is now $0.50.</p>\n            ","response":0,"trial_type":"html-button-response","trial_index":16,"time_elapsed":169180,"internal_node_id":"0.0-4.0-1.4","subject_id":"5f575958009e1a1de016301e","study_id":"6197b3f67c2b5cd3b6d9596a","session_id":"6197b9eace8258cd1857ae3c","condition":"full-information","relevant_dimensions":["antennae","wings"],"bee_group":{"antennae":"B","wings":"1","pattern":"X","legs":"X"},"bonus":1.160000000000001},{"rt":1175.899999999965,"stimulus":"bees-with-color/bee-B2SM.svg","response":0,"trial_type":"image-button-response","trial_index":17,"time_elapsed":170357,"internal_node_id":"0.0-4.0-0.5","subject_id":"5f575958009e1a1de016301e","study_id":"6197b3f67c2b5cd3b6d9596a","session_id":"6197b9eace8258cd1857ae3c","condition":"full-information","relevant_dimensions":["antennae","wings"],"bee_group":{"antennae":"B","wings":"1","pattern":"X","legs":"X"},"action":"harvest","summary":"good-harvest","bonus":1.160000000000001},{"rt":732.7000000000116,"stimulus":"\n                    <p><b>Action: <em>harvest</em></b></p>\n                    <p>This is the bee that you just saw.</p>\n                    <img src=\"bees-with-color/bee-B2SM.svg\" width=\"200\">\n                    <p><span class=\"greenText\"><b>Successful harvest!</b></span><br>Your pay has increased by $0.02. Your bonus pay is now $0.52.</p>\n            ","response":0,"trial_type":"html-button-response","trial_index":18,"time_elapsed":171091,"internal_node_id":"0.0-4.0-1.5","subject_id":"5f575958009e1a1de016301e","study_id":"6197b3f67c2b5cd3b6d9596a","session_id":"6197b9eace8258cd1857ae3c","condition":"full-information","relevant_dimensions":["antennae","wings"],"bee_group":{"antennae":"B","wings":"1","pattern":"X","legs":"X"},"bonus":1.160000000000001},{"rt":1491.7999999999884,"stimulus":"bees-with-color/bee-B1SF.svg","response":1,"trial_type":"image-button-response","trial_index":19,"time_elapsed":172584,"internal_node_id":"0.0-4.0-0.6","subject_id":"5f575958009e1a1de016301e","study_id":"6197b3f67c2b5cd3b6d9596a","session_id":"6197b9eace8258cd1857ae3c","condition":"full-information","relevant_dimensions":["antennae","wings"],"bee_group":{"antennae":"B","wings":"1","pattern":"X","legs":"X"},"action":"avoid","summary":"good-avoid","bonus":1.160000000000001},{"rt":1543.9000000000233,"stimulus":"\n                    <p><b>Action: <em>avoid</em></b></p>\n                    <p>This is the bee that you just saw.</p>\n                    <img src=\"bees-with-color/bee-B1SF.svg\" width=\"200\">\n                    <p><span class=\"greenText\">Good choice!</span>  This bee would have stung you.<br>Your bonus pay is unchanged, and remains at $0.52.</p>\n            ","response":0,"trial_type":"html-button-response","trial_index":20,"time_elapsed":174129,"internal_node_id":"0.0-4.0-1.6","subject_id":"5f575958009e1a1de016301e","study_id":"6197b3f67c2b5cd3b6d9596a","session_id":"6197b9eace8258cd1857ae3c","condition":"full-information","relevant_dimensions":["antennae","wings"],"bee_group":{"antennae":"B","wings":"1","pattern":"X","legs":"X"},"bonus":1.160000000000001},{"rt":926,"stimulus":"bees-with-color/bee-A1SF.svg","response":0,"trial_type":"image-button-response","trial_index":21,"time_elapsed":175056,"internal_node_id":"0.0-4.0-0.7","subject_id":"5f575958009e1a1de016301e","study_id":"6197b3f67c2b5cd3b6d9596a","session_id":"6197b9eace8258cd1857ae3c","condition":"full-information","relevant_dimensions":["antennae","wings"],"bee_group":{"antennae":"B","wings":"1","pattern":"X","legs":"X"},"action":"harvest","summary":"good-harvest","bonus":1.160000000000001},{"rt":747.7000000000116,"stimulus":"\n                    <p><b>Action: <em>harvest</em></b></p>\n                    <p>This is the bee that you just saw.</p>\n                    <img src=\"bees-with-color/bee-A1SF.svg\" width=\"200\">\n                    <p><span class=\"greenText\"><b>Successful harvest!</b></span><br>Your pay has increased by $0.02. Your bonus pay is now $0.54.</p>\n            ","response":0,"trial_type":"html-button-response","trial_index":22,"time_elapsed":175805,"internal_node_id":"0.0-4.0-1.7","subject_id":"5f575958009e1a1de016301e","study_id":"6197b3f67c2b5cd3b6d9596a","session_id":"6197b9eace8258cd1857ae3c","condition":"full-information","relevant_dimensions":["antennae","wings"],"bee_group":{"antennae":"B","wings":"1","pattern":"X","legs":"X"},"bonus":1.160000000000001},{"rt":1292.7999999999884,"stimulus":"bees-with-color/bee-A1SM.svg","response":0,"trial_type":"image-button-response","trial_index":23,"time_elapsed":177100,"internal_node_id":"0.0-4.0-0.8","subject_id":"5f575958009e1a1de016301e","study_id":"6197b3f67c2b5cd3b6d9596a","session_id":"6197b9eace8258cd1857ae3c","condition":"full-information","relevant_dimensions":["antennae","wings"],"bee_group":{"antennae":"B","wings":"1","pattern":"X","legs":"X"},"action":"harvest","summary":"good-harvest","bonus":1.160000000000001},{"rt":715.7000000000116,"stimulus":"\n                    <p><b>Action: <em>harvest</em></b></p>\n                    <p>This is the bee that you just saw.</p>\n                    <img src=\"bees-with-color/bee-A1SM.svg\" width=\"200\">\n                    <p><span class=\"greenText\"><b>Successful harvest!</b></span><br>Your pay has increased by $0.02. Your bonus pay is now $0.56.</p>\n            ","response":0,"trial_type":"html-button-response","trial_index":24,"time_elapsed":177817,"internal_node_id":"0.0-4.0-1.8","subject_id":"5f575958009e1a1de016301e","study_id":"6197b3f67c2b5cd3b6d9596a","session_id":"6197b9eace8258cd1857ae3c","condition":"full-information","relevant_dimensions":["antennae","wings"],"bee_group":{"antennae":"B","wings":"1","pattern":"X","legs":"X"},"bonus":1.160000000000001},{"rt":1084.9000000000233,"stimulus":"bees-with-color/bee-B2SF.svg","response":0,"trial_type":"image-button-response","trial_index":25,"time_elapsed":178903,"internal_node_id":"0.0-4.0-0.9","subject_id":"5f575958009e1a1de016301e","study_id":"6197b3f67c2b5cd3b6d9596a","session_id":"6197b9eace8258cd1857ae3c","condition":"full-information","relevant_dimensions":["antennae","wings"],"bee_group":{"antennae":"B","wings":"1","pattern":"X","legs":"X"},"action":"harvest","summary":"good-harvest","bonus":1.160000000000001},{"rt":736.9000000000233,"stimulus":"\n                    <p><b>Action: <em>harvest</em></b></p>\n                    <p>This is the bee that you just saw.</p>\n                    <img src=\"bees-with-color/bee-B2SF.svg\" width=\"200\">\n                    <p><span class=\"greenText\"><b>Successful harvest!</b></span><br>Your pay has increased by $0.02. Your bonus pay is now $0.58.</p>\n            ","response":0,"trial_type":"html-button-response","trial_index":26,"time_elapsed":179641,"internal_node_id":"0.0-4.0-1.9","subject_id":"5f575958009e1a1de016301e","study_id":"6197b3f67c2b5cd3b6d9596a","session_id":"6197b9eace8258cd1857ae3c","condition":"full-information","relevant_dimensions":["antennae","wings"],"bee_group":{"antennae":"B","wings":"1","pattern":"X","legs":"X"},"bonus":1.160000000000001},{"rt":5106.200000000012,"stimulus":"bees-with-color/bee-A1DM.svg","response":1,"trial_type":"image-button-response","trial_index":27,"time_elapsed":184748,"internal_node_id":"0.0-4.0-0.10","subject_id":"5f575958009e1a1de016301e","study_id":"6197b3f67c2b5cd3b6d9596a","session_id":"6197b9eace8258cd1857ae3c","condition":"full-information","relevant_dimensions":["antennae","wings"],"bee_group":{"antennae":"B","wings":"1","pattern":"X","legs":"X"},"action":"avoid","summary":"bad-avoid","bonus":1.160000000000001},{"rt":2556.600000000035,"stimulus":"\n                    <p><b>Action: <em>avoid</em></b></p>\n                    <p>This is the bee that you just saw.</p>\n                    <img src=\"bees-with-color/bee-A1DM.svg\" width=\"200\">\n                    <p><span class=\"redText\">Bad choice,</span> the bee was friendly.<br>Your bonus pay is unchanged, and remains at $0.58.</p>\n            ","response":0,"trial_type":"html-button-response","trial_index":28,"time_elapsed":187306,"internal_node_id":"0.0-4.0-1.10","subject_id":"5f575958009e1a1de016301e","study_id":"6197b3f67c2b5cd3b6d9596a","session_id":"6197b9eace8258cd1857ae3c","condition":"full-information","relevant_dimensions":["antennae","wings"],"bee_group":{"antennae":"B","wings":"1","pattern":"X","legs":"X"},"bonus":1.160000000000001},{"rt":1159.7999999999884,"stimulus":"bees-with-color/bee-A2DF.svg","response":0,"trial_type":"image-button-response","trial_index":29,"time_elapsed":188467,"internal_node_id":"0.0-4.0-0.11","subject_id":"5f575958009e1a1de016301e","study_id":"6197b3f67c2b5cd3b6d9596a","session_id":"6197b9eace8258cd1857ae3c","condition":"full-information","relevant_dimensions":["antennae","wings"],"bee_group":{"antennae":"B","wings":"1","pattern":"X","legs":"X"},"action":"harvest","summary":"good-harvest","bonus":1.160000000000001},{"rt":671.0999999999767,"stimulus":"\n                    <p><b>Action: <em>harvest</em></b></p>\n                    <p>This is the bee that you just saw.</p>\n                    <img src=\"bees-with-color/bee-A2DF.svg\" width=\"200\">\n                    <p><span class=\"greenText\"><b>Successful harvest!</b></span><br>Your pay has increased by $0.02. Your bonus pay is now $0.60.</p>\n            ","response":0,"trial_type":"html-button-response","trial_index":30,"time_elapsed":189139,"internal_node_id":"0.0-4.0-1.11","subject_id":"5f575958009e1a1de016301e","study_id":"6197b3f67c2b5cd3b6d9596a","session_id":"6197b9eace8258cd1857ae3c","condition":"full-information","relevant_dimensions":["antennae","wings"],"bee_group":{"antennae":"B","wings":"1","pattern":"X","legs":"X"},"bonus":1.160000000000001},{"rt":814,"stimulus":"bees-with-color/bee-B1DM.svg","response":0,"trial_type":"image-button-response","trial_index":31,"time_elapsed":189954,"internal_node_id":"0.0-4.0-0.12","subject_id":"5f575958009e1a1de016301e","study_id":"6197b3f67c2b5cd3b6d9596a","session_id":"6197b9eace8258cd1857ae3c","condition":"full-information","relevant_dimensions":["antennae","wings"],"bee_group":{"antennae":"B","wings":"1","pattern":"X","legs":"X"},"action":"harvest","summary":"bad-harvest","bonus":1.160000000000001},{"rt":1001,"stimulus":"\n                    <p><b>Action: <em>harvest</em></b></p>\n                    <p>This is the bee that you just saw.</p>\n                    <img src=\"bees-with-color/bee-B1DM.svg\" width=\"200\">\n                    <p><span class=\"redText\">Bad choice, the bee was angry.</span><br><b>You have been stung!</b><br>Your pay has been decreased by $0.10. Your bonus pay is now $0.50.</p>\n            ","response":0,"trial_type":"html-button-response","trial_index":32,"time_elapsed":190956,"internal_node_id":"0.0-4.0-1.12","subject_id":"5f575958009e1a1de016301e","study_id":"6197b3f67c2b5cd3b6d9596a","session_id":"6197b9eace8258cd1857ae3c","condition":"full-information","relevant_dimensions":["antennae","wings"],"bee_group":{"antennae":"B","wings":"1","pattern":"X","legs":"X"},"bonus":1.160000000000001},{"rt":1092.7999999999884,"stimulus":"bees-with-color/bee-B2DM.svg","response":0,"trial_type":"image-button-response","trial_index":33,"time_elapsed":192050,"internal_node_id":"0.0-4.0-0.13","subject_id":"5f575958009e1a1de016301e","study_id":"6197b3f67c2b5cd3b6d9596a","session_id":"6197b9eace8258cd1857ae3c","condition":"full-information","relevant_dimensions":["antennae","wings"],"bee_group":{"antennae":"B","wings":"1","pattern":"X","legs":"X"},"action":"harvest","summary":"good-harvest","bonus":1.160000000000001},{"rt":684.7999999999884,"stimulus":"\n                    <p><b>Action: <em>harvest</em></b></p>\n                    <p>This is the bee that you just saw.</p>\n                    <img src=\"bees-with-color/bee-B2DM.svg\" width=\"200\">\n                    <p><span class=\"greenText\"><b>Successful harvest!</b></span><br>Your pay has increased by $0.02. Your bonus pay is now $0.52.</p>\n            ","response":0,"trial_type":"html-button-response","trial_index":34,"time_elapsed":192736,"internal_node_id":"0.0-4.0-1.13","subject_id":"5f575958009e1a1de016301e","study_id":"6197b3f67c2b5cd3b6d9596a","session_id":"6197b9eace8258cd1857ae3c","condition":"full-information","relevant_dimensions":["antennae","wings"],"bee_group":{"antennae":"B","wings":"1","pattern":"X","legs":"X"},"bonus":1.160000000000001},{"rt":1169.7999999999884,"stimulus":"bees-with-color/bee-B1SM.svg","response":1,"trial_type":"image-button-response","trial_index":35,"time_elapsed":193907,"internal_node_id":"0.0-4.0-0.14","subject_id":"5f575958009e1a1de016301e","study_id":"6197b3f67c2b5cd3b6d9596a","session_id":"6197b9eace8258cd1857ae3c","condition":"full-information","relevant_dimensions":["antennae","wings"],"bee_group":{"antennae":"B","wings":"1","pattern":"X","legs":"X"},"action":"avoid","summary":"good-avoid","bonus":1.160000000000001},{"rt":864.7999999999884,"stimulus":"\n                    <p><b>Action: <em>avoid</em></b></p>\n                    <p>This is the bee that you just saw.</p>\n                    <img src=\"bees-with-color/bee-B1SM.svg\" width=\"200\">\n                    <p><span class=\"greenText\">Good choice!</span>  This bee would have stung you.<br>Your bonus pay is unchanged, and remains at $0.52.</p>\n            ","response":0,"trial_type":"html-button-response","trial_index":36,"time_elapsed":194773,"internal_node_id":"0.0-4.0-1.14","subject_id":"5f575958009e1a1de016301e","study_id":"6197b3f67c2b5cd3b6d9596a","session_id":"6197b9eace8258cd1857ae3c","condition":"full-information","relevant_dimensions":["antennae","wings"],"bee_group":{"antennae":"B","wings":"1","pattern":"X","legs":"X"},"bonus":1.160000000000001},{"rt":1919.0999999999767,"stimulus":"bees-with-color/bee-A1DF.svg","response":1,"trial_type":"image-button-response","trial_index":37,"time_elapsed":196693,"internal_node_id":"0.0-4.0-0.15","subject_id":"5f575958009e1a1de016301e","study_id":"6197b3f67c2b5cd3b6d9596a","session_id":"6197b9eace8258cd1857ae3c","condition":"full-information","relevant_dimensions":["antennae","wings"],"bee_group":{"antennae":"B","wings":"1","pattern":"X","legs":"X"},"action":"avoid","summary":"bad-avoid","bonus":1.160000000000001},{"rt":725.0999999999767,"stimulus":"\n                    <p><b>Action: <em>avoid</em></b></p>\n                    <p>This is the bee that you just saw.</p>\n                    <img src=\"bees-with-color/bee-A1DF.svg\" width=\"200\">\n                    <p><span class=\"redText\">Bad choice,</span> the bee was friendly.<br>Your bonus pay is unchanged, and remains at $0.52.</p>\n            ","response":0,"trial_type":"html-button-response","trial_index":38,"time_elapsed":197419,"internal_node_id":"0.0-4.0-1.15","subject_id":"5f575958009e1a1de016301e","study_id":"6197b3f67c2b5cd3b6d9596a","session_id":"6197b9eace8258cd1857ae3c","condition":"full-information","relevant_dimensions":["antennae","wings"],"bee_group":{"antennae":"B","wings":"1","pattern":"X","legs":"X"},"bonus":1.160000000000001},{"rt":902.7999999999884,"stimulus":"bees-with-color/bee-B2SM.svg","response":0,"trial_type":"image-button-response","trial_index":39,"time_elapsed":198323,"internal_node_id":"0.0-4.0-0.16","subject_id":"5f575958009e1a1de016301e","study_id":"6197b3f67c2b5cd3b6d9596a","session_id":"6197b9eace8258cd1857ae3c","condition":"full-information","relevant_dimensions":["antennae","wings"],"bee_group":{"antennae":"B","wings":"1","pattern":"X","legs":"X"},"action":"harvest","summary":"good-harvest","bonus":1.160000000000001},{"rt":680,"stimulus":"\n                    <p><b>Action: <em>harvest</em></b></p>\n                    <p>This is the bee that you just saw.</p>\n                    <img src=\"bees-with-color/bee-B2SM.svg\" width=\"200\">\n                    <p><span class=\"greenText\"><b>Successful harvest!</b></span><br>Your pay has increased by $0.02. Your bonus pay is now $0.54.</p>\n            ","response":0,"trial_type":"html-button-response","trial_index":40,"time_elapsed":199004,"internal_node_id":"0.0-4.0-1.16","subject_id":"5f575958009e1a1de016301e","study_id":"6197b3f67c2b5cd3b6d9596a","session_id":"6197b9eace8258cd1857ae3c","condition":"full-information","relevant_dimensions":["antennae","wings"],"bee_group":{"antennae":"B","wings":"1","pattern":"X","legs":"X"},"bonus":1.160000000000001},{"rt":1404.9000000000233,"stimulus":"bees-with-color/bee-A1DF.svg","response":1,"trial_type":"image-button-response","trial_index":41,"time_elapsed":200410,"internal_node_id":"0.0-4.0-0.17","subject_id":"5f575958009e1a1de016301e","study_id":"6197b3f67c2b5cd3b6d9596a","session_id":"6197b9eace8258cd1857ae3c","condition":"full-information","relevant_dimensions":["antennae","wings"],"bee_group":{"antennae":"B","wings":"1","pattern":"X","legs":"X"},"action":"avoid","summary":"bad-avoid","bonus":1.160000000000001},{"rt":854.1000000000349,"stimulus":"\n                    <p><b>Action: <em>avoid</em></b></p>\n                    <p>This is the bee that you just saw.</p>\n                    <img src=\"bees-with-color/bee-A1DF.svg\" width=\"200\">\n                    <p><span class=\"redText\">Bad choice,</span> the bee was friendly.<br>Your bonus pay is unchanged, and remains at $0.54.</p>\n            ","response":0,"trial_type":"html-button-response","trial_index":42,"time_elapsed":201265,"internal_node_id":"0.0-4.0-1.17","subject_id":"5f575958009e1a1de016301e","study_id":"6197b3f67c2b5cd3b6d9596a","session_id":"6197b9eace8258cd1857ae3c","condition":"full-information","relevant_dimensions":["antennae","wings"],"bee_group":{"antennae":"B","wings":"1","pattern":"X","legs":"X"},"bonus":1.160000000000001},{"rt":810.7999999999302,"stimulus":"bees-with-color/bee-B2DM.svg","response":0,"trial_type":"image-button-response","trial_index":43,"time_elapsed":202077,"internal_node_id":"0.0-4.0-0.18","subject_id":"5f575958009e1a1de016301e","study_id":"6197b3f67c2b5cd3b6d9596a","session_id":"6197b9eace8258cd1857ae3c","condition":"full-information","relevant_dimensions":["antennae","wings"],"bee_group":{"antennae":"B","wings":"1","pattern":"X","legs":"X"},"action":"harvest","summary":"good-harvest","bonus":1.160000000000001},{"rt":724.8999999999069,"stimulus":"\n                    <p><b>Action: <em>harvest</em></b></p>\n                    <p>This is the bee that you just saw.</p>\n                    <img src=\"bees-with-color/bee-B2DM.svg\" width=\"200\">\n                    <p><span class=\"greenText\"><b>Successful harvest!</b></span><br>Your pay has increased by $0.02. Your bonus pay is now $0.56.</p>\n            ","response":0,"trial_type":"html-button-response","trial_index":44,"time_elapsed":202803,"internal_node_id":"0.0-4.0-1.18","subject_id":"5f575958009e1a1de016301e","study_id":"6197b3f67c2b5cd3b6d9596a","session_id":"6197b9eace8258cd1857ae3c","condition":"full-information","relevant_dimensions":["antennae","wings"],"bee_group":{"antennae":"B","wings":"1","pattern":"X","legs":"X"},"bonus":1.160000000000001},{"rt":1497,"stimulus":"bees-with-color/bee-B1SF.svg","response":1,"trial_type":"image-button-response","trial_index":45,"time_elapsed":204301,"internal_node_id":"0.0-4.0-0.19","subject_id":"5f575958009e1a1de016301e","study_id":"6197b3f67c2b5cd3b6d9596a","session_id":"6197b9eace8258cd1857ae3c","condition":"full-information","relevant_dimensions":["antennae","wings"],"bee_group":{"antennae":"B","wings":"1","pattern":"X","legs":"X"},"action":"avoid","summary":"good-avoid","bonus":1.160000000000001},{"rt":1091,"stimulus":"\n                    <p><b>Action: <em>avoid</em></b></p>\n                    <p>This is the bee that you just saw.</p>\n                    <img src=\"bees-with-color/bee-B1SF.svg\" width=\"200\">\n                    <p><span class=\"greenText\">Good choice!</span>  This bee would have stung you.<br>Your bonus pay is unchanged, and remains at $0.56.</p>\n            ","response":0,"trial_type":"html-button-response","trial_index":46,"time_elapsed":205393,"internal_node_id":"0.0-4.0-1.19","subject_id":"5f575958009e1a1de016301e","study_id":"6197b3f67c2b5cd3b6d9596a","session_id":"6197b9eace8258cd1857ae3c","condition":"full-information","relevant_dimensions":["antennae","wings"],"bee_group":{"antennae":"B","wings":"1","pattern":"X","legs":"X"},"bonus":1.160000000000001},{"rt":872.7999999999302,"stimulus":"bees-with-color/bee-A2SM.svg","response":0,"trial_type":"image-button-response","trial_index":47,"time_elapsed":206267,"internal_node_id":"0.0-4.0-0.20","subject_id":"5f575958009e1a1de016301e","study_id":"6197b3f67c2b5cd3b6d9596a","session_id":"6197b9eace8258cd1857ae3c","condition":"full-information","relevant_dimensions":["antennae","wings"],"bee_group":{"antennae":"B","wings":"1","pattern":"X","legs":"X"},"action":"harvest","summary":"good-harvest","bonus":1.160000000000001},{"rt":791.0999999999767,"stimulus":"\n                    <p><b>Action: <em>harvest</em></b></p>\n                    <p>This is the bee that you just saw.</p>\n                    <img src=\"bees-with-color/bee-A2SM.svg\" width=\"200\">\n                    <p><span class=\"greenText\"><b>Successful harvest!</b></span><br>Your pay has increased by $0.02. Your bonus pay is now $0.58.</p>\n            ","response":0,"trial_type":"html-button-response","trial_index":48,"time_elapsed":207059,"internal_node_id":"0.0-4.0-1.20","subject_id":"5f575958009e1a1de016301e","study_id":"6197b3f67c2b5cd3b6d9596a","session_id":"6197b9eace8258cd1857ae3c","condition":"full-information","relevant_dimensions":["antennae","wings"],"bee_group":{"antennae":"B","wings":"1","pattern":"X","legs":"X"},"bonus":1.160000000000001},{"rt":1553.7999999999302,"stimulus":"bees-with-color/bee-A2SF.svg","response":0,"trial_type":"image-button-response","trial_index":49,"time_elapsed":208614,"internal_node_id":"0.0-4.0-0.21","subject_id":"5f575958009e1a1de016301e","study_id":"6197b3f67c2b5cd3b6d9596a","session_id":"6197b9eace8258cd1857ae3c","condition":"full-information","relevant_dimensions":["antennae","wings"],"bee_group":{"antennae":"B","wings":"1","pattern":"X","legs":"X"},"action":"harvest","summary":"good-harvest","bonus":1.160000000000001},{"rt":552,"stimulus":"\n                    <p><b>Action: <em>harvest</em></b></p>\n                    <p>This is the bee that you just saw.</p>\n                    <img src=\"bees-with-color/bee-A2SF.svg\" width=\"200\">\n                    <p><span class=\"greenText\"><b>Successful harvest!</b></span><br>Your pay has increased by $0.02. Your bonus pay is now $0.60.</p>\n            ","response":0,"trial_type":"html-button-response","trial_index":50,"time_elapsed":209167,"internal_node_id":"0.0-4.0-1.21","subject_id":"5f575958009e1a1de016301e","study_id":"6197b3f67c2b5cd3b6d9596a","session_id":"6197b9eace8258cd1857ae3c","condition":"full-information","relevant_dimensions":["antennae","wings"],"bee_group":{"antennae":"B","wings":"1","pattern":"X","legs":"X"},"bonus":1.160000000000001},{"rt":1111.9000000000233,"stimulus":"bees-with-color/bee-A1SM.svg","response":0,"trial_type":"image-button-response","trial_index":51,"time_elapsed":210280,"internal_node_id":"0.0-4.0-0.22","subject_id":"5f575958009e1a1de016301e","study_id":"6197b3f67c2b5cd3b6d9596a","session_id":"6197b9eace8258cd1857ae3c","condition":"full-information","relevant_dimensions":["antennae","wings"],"bee_group":{"antennae":"B","wings":"1","pattern":"X","legs":"X"},"action":"harvest","summary":"good-harvest","bonus":1.160000000000001},{"rt":625,"stimulus":"\n                    <p><b>Action: <em>harvest</em></b></p>\n                    <p>This is the bee that you just saw.</p>\n                    <img src=\"bees-with-color/bee-A1SM.svg\" width=\"200\">\n                    <p><span class=\"greenText\"><b>Successful harvest!</b></span><br>Your pay has increased by $0.02. Your bonus pay is now $0.62.</p>\n            ","response":0,"trial_type":"html-button-response","trial_index":52,"time_elapsed":210906,"internal_node_id":"0.0-4.0-1.22","subject_id":"5f575958009e1a1de016301e","study_id":"6197b3f67c2b5cd3b6d9596a","session_id":"6197b9eace8258cd1857ae3c","condition":"full-information","relevant_dimensions":["antennae","wings"],"bee_group":{"antennae":"B","wings":"1","pattern":"X","legs":"X"},"bonus":1.160000000000001},{"rt":1004.2000000000698,"stimulus":"bees-with-color/bee-B1DM.svg","response":1,"trial_type":"image-button-response","trial_index":53,"time_elapsed":211911,"internal_node_id":"0.0-4.0-0.23","subject_id":"5f575958009e1a1de016301e","study_id":"6197b3f67c2b5cd3b6d9596a","session_id":"6197b9eace8258cd1857ae3c","condition":"full-information","relevant_dimensions":["antennae","wings"],"bee_group":{"antennae":"B","wings":"1","pattern":"X","legs":"X"},"action":"avoid","summary":"good-avoid","bonus":1.160000000000001},{"rt":859,"stimulus":"\n                    <p><b>Action: <em>avoid</em></b></p>\n                    <p>This is the bee that you just saw.</p>\n                    <img src=\"bees-with-color/bee-B1DM.svg\" width=\"200\">\n                    <p><span class=\"greenText\">Good choice!</span>  This bee would have stung you.<br>Your bonus pay is unchanged, and remains at $0.62.</p>\n            ","response":0,"trial_type":"html-button-response","trial_index":54,"time_elapsed":212771,"internal_node_id":"0.0-4.0-1.23","subject_id":"5f575958009e1a1de016301e","study_id":"6197b3f67c2b5cd3b6d9596a","session_id":"6197b9eace8258cd1857ae3c","condition":"full-information","relevant_dimensions":["antennae","wings"],"bee_group":{"antennae":"B","wings":"1","pattern":"X","legs":"X"},"bonus":1.160000000000001},{"rt":829.2000000000698,"stimulus":"bees-with-color/bee-B2DF.svg","response":0,"trial_type":"image-button-response","trial_index":55,"time_elapsed":213601,"internal_node_id":"0.0-4.0-0.24","subject_id":"5f575958009e1a1de016301e","study_id":"6197b3f67c2b5cd3b6d9596a","session_id":"6197b9eace8258cd1857ae3c","condition":"full-information","relevant_dimensions":["antennae","wings"],"bee_group":{"antennae":"B","wings":"1","pattern":"X","legs":"X"},"action":"harvest","summary":"good-harvest","bonus":1.160000000000001},{"rt":591.8999999999069,"stimulus":"\n                    <p><b>Action: <em>harvest</em></b></p>\n                    <p>This is the bee that you just saw.</p>\n                    <img src=\"bees-with-color/bee-B2DF.svg\" width=\"200\">\n                    <p><span class=\"greenText\"><b>Successful harvest!</b></span><br>Your pay has increased by $0.02. Your bonus pay is now $0.64.</p>\n            ","response":0,"trial_type":"html-button-response","trial_index":56,"time_elapsed":214194,"internal_node_id":"0.0-4.0-1.24","subject_id":"5f575958009e1a1de016301e","study_id":"6197b3f67c2b5cd3b6d9596a","session_id":"6197b9eace8258cd1857ae3c","condition":"full-information","relevant_dimensions":["antennae","wings"],"bee_group":{"antennae":"B","wings":"1","pattern":"X","legs":"X"},"bonus":1.160000000000001},{"rt":944.2000000000698,"stimulus":"bees-with-color/bee-B2SF.svg","response":0,"trial_type":"image-button-response","trial_index":57,"time_elapsed":215139,"internal_node_id":"0.0-4.0-0.25","subject_id":"5f575958009e1a1de016301e","study_id":"6197b3f67c2b5cd3b6d9596a","session_id":"6197b9eace8258cd1857ae3c","condition":"full-information","relevant_dimensions":["antennae","wings"],"bee_group":{"antennae":"B","wings":"1","pattern":"X","legs":"X"},"action":"harvest","summary":"good-harvest","bonus":1.160000000000001},{"rt":613,"stimulus":"\n                    <p><b>Action: <em>harvest</em></b></p>\n                    <p>This is the bee that you just saw.</p>\n                    <img src=\"bees-with-color/bee-B2SF.svg\" width=\"200\">\n                    <p><span class=\"greenText\"><b>Successful harvest!</b></span><br>Your pay has increased by $0.02. Your bonus pay is now $0.66.</p>\n            ","response":0,"trial_type":"html-button-response","trial_index":58,"time_elapsed":215753,"internal_node_id":"0.0-4.0-1.25","subject_id":"5f575958009e1a1de016301e","study_id":"6197b3f67c2b5cd3b6d9596a","session_id":"6197b9eace8258cd1857ae3c","condition":"full-information","relevant_dimensions":["antennae","wings"],"bee_group":{"antennae":"B","wings":"1","pattern":"X","legs":"X"},"bonus":1.160000000000001},{"rt":933.0999999999767,"stimulus":"bees-with-color/bee-A2DM.svg","response":0,"trial_type":"image-button-response","trial_index":59,"time_elapsed":216687,"internal_node_id":"0.0-4.0-0.26","subject_id":"5f575958009e1a1de016301e","study_id":"6197b3f67c2b5cd3b6d9596a","session_id":"6197b9eace8258cd1857ae3c","condition":"full-information","relevant_dimensions":["antennae","wings"],"bee_group":{"antennae":"B","wings":"1","pattern":"X","legs":"X"},"action":"harvest","summary":"good-harvest","bonus":1.160000000000001},{"rt":606,"stimulus":"\n                    <p><b>Action: <em>harvest</em></b></p>\n                    <p>This is the bee that you just saw.</p>\n                    <img src=\"bees-with-color/bee-A2DM.svg\" width=\"200\">\n                    <p><span class=\"greenText\"><b>Successful harvest!</b></span><br>Your pay has increased by $0.02. Your bonus pay is now $0.68.</p>\n            ","response":0,"trial_type":"html-button-response","trial_index":60,"time_elapsed":217294,"internal_node_id":"0.0-4.0-1.26","subject_id":"5f575958009e1a1de016301e","study_id":"6197b3f67c2b5cd3b6d9596a","session_id":"6197b9eace8258cd1857ae3c","condition":"full-information","relevant_dimensions":["antennae","wings"],"bee_group":{"antennae":"B","wings":"1","pattern":"X","legs":"X"},"bonus":1.160000000000001},{"rt":1203.9000000000233,"stimulus":"bees-with-color/bee-B1SM.svg","response":1,"trial_type":"image-button-response","trial_index":61,"time_elapsed":218499,"internal_node_id":"0.0-4.0-0.27","subject_id":"5f575958009e1a1de016301e","study_id":"6197b3f67c2b5cd3b6d9596a","session_id":"6197b9eace8258cd1857ae3c","condition":"full-information","relevant_dimensions":["antennae","wings"],"bee_group":{"antennae":"B","wings":"1","pattern":"X","legs":"X"},"action":"avoid","summary":"good-avoid","bonus":1.160000000000001},{"rt":747,"stimulus":"\n                    <p><b>Action: <em>avoid</em></b></p>\n                    <p>This is the bee that you just saw.</p>\n                    <img src=\"bees-with-color/bee-B1SM.svg\" width=\"200\">\n                    <p><span class=\"greenText\">Good choice!</span>  This bee would have stung you.<br>Your bonus pay is unchanged, and remains at $0.68.</p>\n            ","response":0,"trial_type":"html-button-response","trial_index":62,"time_elapsed":219247,"internal_node_id":"0.0-4.0-1.27","subject_id":"5f575958009e1a1de016301e","study_id":"6197b3f67c2b5cd3b6d9596a","session_id":"6197b9eace8258cd1857ae3c","condition":"full-information","relevant_dimensions":["antennae","wings"],"bee_group":{"antennae":"B","wings":"1","pattern":"X","legs":"X"},"bonus":1.160000000000001},{"rt":1608.7999999999302,"stimulus":"bees-with-color/bee-A1SF.svg","response":1,"trial_type":"image-button-response","trial_index":63,"time_elapsed":220857,"internal_node_id":"0.0-4.0-0.28","subject_id":"5f575958009e1a1de016301e","study_id":"6197b3f67c2b5cd3b6d9596a","session_id":"6197b9eace8258cd1857ae3c","condition":"full-information","relevant_dimensions":["antennae","wings"],"bee_group":{"antennae":"B","wings":"1","pattern":"X","legs":"X"},"action":"avoid","summary":"bad-avoid","bonus":1.160000000000001},{"rt":702,"stimulus":"\n                    <p><b>Action: <em>avoid</em></b></p>\n                    <p>This is the bee that you just saw.</p>\n                    <img src=\"bees-with-color/bee-A1SF.svg\" width=\"200\">\n                    <p><span class=\"redText\">Bad choice,</span> the bee was friendly.<br>Your bonus pay is unchanged, and remains at $0.68.</p>\n            ","response":0,"trial_type":"html-button-response","trial_index":64,"time_elapsed":221560,"internal_node_id":"0.0-4.0-1.28","subject_id":"5f575958009e1a1de016301e","study_id":"6197b3f67c2b5cd3b6d9596a","session_id":"6197b9eace8258cd1857ae3c","condition":"full-information","relevant_dimensions":["antennae","wings"],"bee_group":{"antennae":"B","wings":"1","pattern":"X","legs":"X"},"bonus":1.160000000000001},{"rt":741.7999999999302,"stimulus":"bees-with-color/bee-A2DF.svg","response":0,"trial_type":"image-button-response","trial_index":65,"time_elapsed":222303,"internal_node_id":"0.0-4.0-0.29","subject_id":"5f575958009e1a1de016301e","study_id":"6197b3f67c2b5cd3b6d9596a","session_id":"6197b9eace8258cd1857ae3c","condition":"full-information","relevant_dimensions":["antennae","wings"],"bee_group":{"antennae":"B","wings":"1","pattern":"X","legs":"X"},"action":"harvest","summary":"good-harvest","bonus":1.160000000000001},{"rt":606,"stimulus":"\n                    <p><b>Action: <em>harvest</em></b></p>\n                    <p>This is the bee that you just saw.</p>\n                    <img src=\"bees-with-color/bee-A2DF.svg\" width=\"200\">\n                    <p><span class=\"greenText\"><b>Successful harvest!</b></span><br>Your pay has increased by $0.02. Your bonus pay is now $0.70.</p>\n            ","response":0,"trial_type":"html-button-response","trial_index":66,"time_elapsed":222910,"internal_node_id":"0.0-4.0-1.29","subject_id":"5f575958009e1a1de016301e","study_id":"6197b3f67c2b5cd3b6d9596a","session_id":"6197b9eace8258cd1857ae3c","condition":"full-information","relevant_dimensions":["antennae","wings"],"bee_group":{"antennae":"B","wings":"1","pattern":"X","legs":"X"},"bonus":1.160000000000001},{"rt":808.0999999999767,"stimulus":"bees-with-color/bee-A1DM.svg","response":0,"trial_type":"image-button-response","trial_index":67,"time_elapsed":223719,"internal_node_id":"0.0-4.0-0.30","subject_id":"5f575958009e1a1de016301e","study_id":"6197b3f67c2b5cd3b6d9596a","session_id":"6197b9eace8258cd1857ae3c","condition":"full-information","relevant_dimensions":["antennae","wings"],"bee_group":{"antennae":"B","wings":"1","pattern":"X","legs":"X"},"action":"harvest","summary":"good-harvest","bonus":1.160000000000001},{"rt":583.1000000000931,"stimulus":"\n                    <p><b>Action: <em>harvest</em></b></p>\n                    <p>This is the bee that you just saw.</p>\n                    <img src=\"bees-with-color/bee-A1DM.svg\" width=\"200\">\n                    <p><span class=\"greenText\"><b>Successful harvest!</b></span><br>Your pay has increased by $0.02. Your bonus pay is now $0.72.</p>\n            ","response":0,"trial_type":"html-button-response","trial_index":68,"time_elapsed":224303,"internal_node_id":"0.0-4.0-1.30","subject_id":"5f575958009e1a1de016301e","study_id":"6197b3f67c2b5cd3b6d9596a","session_id":"6197b9eace8258cd1857ae3c","condition":"full-information","relevant_dimensions":["antennae","wings"],"bee_group":{"antennae":"B","wings":"1","pattern":"X","legs":"X"},"bonus":1.160000000000001},{"rt":752,"stimulus":"bees-with-color/bee-B1DF.svg","response":0,"trial_type":"image-button-response","trial_index":69,"time_elapsed":225056,"internal_node_id":"0.0-4.0-0.31","subject_id":"5f575958009e1a1de016301e","study_id":"6197b3f67c2b5cd3b6d9596a","session_id":"6197b9eace8258cd1857ae3c","condition":"full-information","relevant_dimensions":["antennae","wings"],"bee_group":{"antennae":"B","wings":"1","pattern":"X","legs":"X"},"action":"harvest","summary":"bad-harvest","bonus":1.160000000000001},{"rt":1241.8999999999069,"stimulus":"\n                    <p><b>Action: <em>harvest</em></b></p>\n                    <p>This is the bee that you just saw.</p>\n                    <img src=\"bees-with-color/bee-B1DF.svg\" width=\"200\">\n                    <p><span class=\"redText\">Bad choice, the bee was angry.</span><br><b>You have been stung!</b><br>Your pay has been decreased by $0.10. Your bonus pay is now $0.62.</p>\n            ","response":0,"trial_type":"html-button-response","trial_index":70,"time_elapsed":226299,"internal_node_id":"0.0-4.0-1.31","subject_id":"5f575958009e1a1de016301e","study_id":"6197b3f67c2b5cd3b6d9596a","session_id":"6197b9eace8258cd1857ae3c","condition":"full-information","relevant_dimensions":["antennae","wings"],"bee_group":{"antennae":"B","wings":"1","pattern":"X","legs":"X"},"bonus":1.160000000000001},{"rt":1077.0999999999767,"stimulus":"bees-with-color/bee-A1DF.svg","response":1,"trial_type":"image-button-response","trial_index":71,"time_elapsed":227377,"internal_node_id":"0.0-4.0-0.32","subject_id":"5f575958009e1a1de016301e","study_id":"6197b3f67c2b5cd3b6d9596a","session_id":"6197b9eace8258cd1857ae3c","condition":"full-information","relevant_dimensions":["antennae","wings"],"bee_group":{"antennae":"B","wings":"1","pattern":"X","legs":"X"},"action":"avoid","summary":"bad-avoid","bonus":1.160000000000001},{"rt":711.8999999999069,"stimulus":"\n                    <p><b>Action: <em>avoid</em></b></p>\n                    <p>This is the bee that you just saw.</p>\n                    <img src=\"bees-with-color/bee-A1DF.svg\" width=\"200\">\n                    <p><span class=\"redText\">Bad choice,</span> the bee was friendly.<br>Your bonus pay is unchanged, and remains at $0.62.</p>\n            ","response":0,"trial_type":"html-button-response","trial_index":72,"time_elapsed":228090,"internal_node_id":"0.0-4.0-1.32","subject_id":"5f575958009e1a1de016301e","study_id":"6197b3f67c2b5cd3b6d9596a","session_id":"6197b9eace8258cd1857ae3c","condition":"full-information","relevant_dimensions":["antennae","wings"],"bee_group":{"antennae":"B","wings":"1","pattern":"X","legs":"X"},"bonus":1.160000000000001},{"rt":674,"stimulus":"bees-with-color/bee-B2SF.svg","response":0,"trial_type":"image-button-response","trial_index":73,"time_elapsed":228765,"internal_node_id":"0.0-4.0-0.33","subject_id":"5f575958009e1a1de016301e","study_id":"6197b3f67c2b5cd3b6d9596a","session_id":"6197b9eace8258cd1857ae3c","condition":"full-information","relevant_dimensions":["antennae","wings"],"bee_group":{"antennae":"B","wings":"1","pattern":"X","legs":"X"},"action":"harvest","summary":"good-harvest","bonus":1.160000000000001},{"rt":670.9000000000233,"stimulus":"\n                    <p><b>Action: <em>harvest</em></b></p>\n                    <p>This is the bee that you just saw.</p>\n                    <img src=\"bees-with-color/bee-B2SF.svg\" width=\"200\">\n                    <p><span class=\"greenText\"><b>Successful harvest!</b></span><br>Your pay has increased by $0.02. Your bonus pay is now $0.64.</p>\n            ","response":0,"trial_type":"html-button-response","trial_index":74,"time_elapsed":229437,"internal_node_id":"0.0-4.0-1.33","subject_id":"5f575958009e1a1de016301e","study_id":"6197b3f67c2b5cd3b6d9596a","session_id":"6197b9eace8258cd1857ae3c","condition":"full-information","relevant_dimensions":["antennae","wings"],"bee_group":{"antennae":"B","wings":"1","pattern":"X","legs":"X"},"bonus":1.160000000000001},{"rt":873.9000000000233,"stimulus":"bees-with-color/bee-B1DF.svg","response":1,"trial_type":"image-button-response","trial_index":75,"time_elapsed":230312,"internal_node_id":"0.0-4.0-0.34","subject_id":"5f575958009e1a1de016301e","study_id":"6197b3f67c2b5cd3b6d9596a","session_id":"6197b9eace8258cd1857ae3c","condition":"full-information","relevant_dimensions":["antennae","wings"],"bee_group":{"antennae":"B","wings":"1","pattern":"X","legs":"X"},"action":"avoid","summary":"good-avoid","bonus":1.160000000000001},{"rt":535.9000000000233,"stimulus":"\n                    <p><b>Action: <em>avoid</em></b></p>\n                    <p>This is the bee that you just saw.</p>\n                    <img src=\"bees-with-color/bee-B1DF.svg\" width=\"200\">\n                    <p><span class=\"greenText\">Good choice!</span>  This bee would have stung you.<br>Your bonus pay is unchanged, and remains at $0.64.</p>\n            ","response":0,"trial_type":"html-button-response","trial_index":76,"time_elapsed":230849,"internal_node_id":"0.0-4.0-1.34","subject_id":"5f575958009e1a1de016301e","study_id":"6197b3f67c2b5cd3b6d9596a","session_id":"6197b9eace8258cd1857ae3c","condition":"full-information","relevant_dimensions":["antennae","wings"],"bee_group":{"antennae":"B","wings":"1","pattern":"X","legs":"X"},"bonus":1.160000000000001},{"rt":1675.9000000000233,"stimulus":"bees-with-color/bee-B1DM.svg","response":1,"trial_type":"image-button-response","trial_index":77,"time_elapsed":232526,"internal_node_id":"0.0-4.0-0.35","subject_id":"5f575958009e1a1de016301e","study_id":"6197b3f67c2b5cd3b6d9596a","session_id":"6197b9eace8258cd1857ae3c","condition":"full-information","relevant_dimensions":["antennae","wings"],"bee_group":{"antennae":"B","wings":"1","pattern":"X","legs":"X"},"action":"avoid","summary":"good-avoid","bonus":1.160000000000001},{"rt":644,"stimulus":"\n                    <p><b>Action: <em>avoid</em></b></p>\n                    <p>This is the bee that you just saw.</p>\n                    <img src=\"bees-with-color/bee-B1DM.svg\" width=\"200\">\n                    <p><span class=\"greenText\">Good choice!</span>  This bee would have stung you.<br>Your bonus pay is unchanged, and remains at $0.64.</p>\n            ","response":0,"trial_type":"html-button-response","trial_index":78,"time_elapsed":233171,"internal_node_id":"0.0-4.0-1.35","subject_id":"5f575958009e1a1de016301e","study_id":"6197b3f67c2b5cd3b6d9596a","session_id":"6197b9eace8258cd1857ae3c","condition":"full-information","relevant_dimensions":["antennae","wings"],"bee_group":{"antennae":"B","wings":"1","pattern":"X","legs":"X"},"bonus":1.160000000000001},{"rt":1107.7000000000698,"stimulus":"bees-with-color/bee-A1DM.svg","response":1,"trial_type":"image-button-response","trial_index":79,"time_elapsed":234280,"internal_node_id":"0.0-4.0-0.36","subject_id":"5f575958009e1a1de016301e","study_id":"6197b3f67c2b5cd3b6d9596a","session_id":"6197b9eace8258cd1857ae3c","condition":"full-information","relevant_dimensions":["antennae","wings"],"bee_group":{"antennae":"B","wings":"1","pattern":"X","legs":"X"},"action":"avoid","summary":"bad-avoid","bonus":1.160000000000001},{"rt":767,"stimulus":"\n                    <p><b>Action: <em>avoid</em></b></p>\n                    <p>This is the bee that you just saw.</p>\n                    <img src=\"bees-with-color/bee-A1DM.svg\" width=\"200\">\n                    <p><span class=\"redText\">Bad choice,</span> the bee was friendly.<br>Your bonus pay is unchanged, and remains at $0.64.</p>\n            ","response":0,"trial_type":"html-button-response","trial_index":80,"time_elapsed":235048,"internal_node_id":"0.0-4.0-1.36","subject_id":"5f575958009e1a1de016301e","study_id":"6197b3f67c2b5cd3b6d9596a","session_id":"6197b9eace8258cd1857ae3c","condition":"full-information","relevant_dimensions":["antennae","wings"],"bee_group":{"antennae":"B","wings":"1","pattern":"X","legs":"X"},"bonus":1.160000000000001},{"rt":689.0999999999767,"stimulus":"bees-with-color/bee-A2DM.svg","response":0,"trial_type":"image-button-response","trial_index":81,"time_elapsed":235738,"internal_node_id":"0.0-4.0-0.37","subject_id":"5f575958009e1a1de016301e","study_id":"6197b3f67c2b5cd3b6d9596a","session_id":"6197b9eace8258cd1857ae3c","condition":"full-information","relevant_dimensions":["antennae","wings"],"bee_group":{"antennae":"B","wings":"1","pattern":"X","legs":"X"},"action":"harvest","summary":"good-harvest","bonus":1.160000000000001},{"rt":653.0999999999767,"stimulus":"\n                    <p><b>Action: <em>harvest</em></b></p>\n                    <p>This is the bee that you just saw.</p>\n                    <img src=\"bees-with-color/bee-A2DM.svg\" width=\"200\">\n                    <p><span class=\"greenText\"><b>Successful harvest!</b></span><br>Your pay has increased by $0.02. Your bonus pay is now $0.66.</p>\n            ","response":0,"trial_type":"html-button-response","trial_index":82,"time_elapsed":236392,"internal_node_id":"0.0-4.0-1.37","subject_id":"5f575958009e1a1de016301e","study_id":"6197b3f67c2b5cd3b6d9596a","session_id":"6197b9eace8258cd1857ae3c","condition":"full-information","relevant_dimensions":["antennae","wings"],"bee_group":{"antennae":"B","wings":"1","pattern":"X","legs":"X"},"bonus":1.160000000000001},{"rt":1215.2000000000698,"stimulus":"bees-with-color/bee-A2DF.svg","response":0,"trial_type":"image-button-response","trial_index":83,"time_elapsed":237608,"internal_node_id":"0.0-4.0-0.38","subject_id":"5f575958009e1a1de016301e","study_id":"6197b3f67c2b5cd3b6d9596a","session_id":"6197b9eace8258cd1857ae3c","condition":"full-information","relevant_dimensions":["antennae","wings"],"bee_group":{"antennae":"B","wings":"1","pattern":"X","legs":"X"},"action":"harvest","summary":"good-harvest","bonus":1.160000000000001},{"rt":1163.8999999999069,"stimulus":"\n                    <p><b>Action: <em>harvest</em></b></p>\n                    <p>This is the bee that you just saw.</p>\n                    <img src=\"bees-with-color/bee-A2DF.svg\" width=\"200\">\n                    <p><span class=\"greenText\"><b>Successful harvest!</b></span><br>Your pay has increased by $0.02. Your bonus pay is now $0.68.</p>\n            ","response":0,"trial_type":"html-button-response","trial_index":84,"time_elapsed":238773,"internal_node_id":"0.0-4.0-1.38","subject_id":"5f575958009e1a1de016301e","study_id":"6197b3f67c2b5cd3b6d9596a","session_id":"6197b9eace8258cd1857ae3c","condition":"full-information","relevant_dimensions":["antennae","wings"],"bee_group":{"antennae":"B","wings":"1","pattern":"X","legs":"X"},"bonus":1.160000000000001},{"rt":1309.2000000000698,"stimulus":"bees-with-color/bee-A1SM.svg","response":1,"trial_type":"image-button-response","trial_index":85,"time_elapsed":240083,"internal_node_id":"0.0-4.0-0.39","subject_id":"5f575958009e1a1de016301e","study_id":"6197b3f67c2b5cd3b6d9596a","session_id":"6197b9eace8258cd1857ae3c","condition":"full-information","relevant_dimensions":["antennae","wings"],"bee_group":{"antennae":"B","wings":"1","pattern":"X","legs":"X"},"action":"avoid","summary":"bad-avoid","bonus":1.160000000000001},{"rt":551.1000000000931,"stimulus":"\n                    <p><b>Action: <em>avoid</em></b></p>\n                    <p>This is the bee that you just saw.</p>\n                    <img src=\"bees-with-color/bee-A1SM.svg\" width=\"200\">\n                    <p><span class=\"redText\">Bad choice,</span> the bee was friendly.<br>Your bonus pay is unchanged, and remains at $0.68.</p>\n            ","response":0,"trial_type":"html-button-response","trial_index":86,"time_elapsed":240635,"internal_node_id":"0.0-4.0-1.39","subject_id":"5f575958009e1a1de016301e","study_id":"6197b3f67c2b5cd3b6d9596a","session_id":"6197b9eace8258cd1857ae3c","condition":"full-information","relevant_dimensions":["antennae","wings"],"bee_group":{"antennae":"B","wings":"1","pattern":"X","legs":"X"},"bonus":1.160000000000001},{"rt":1148,"stimulus":"bees-with-color/bee-A1SF.svg","response":1,"trial_type":"image-button-response","trial_index":87,"time_elapsed":241784,"internal_node_id":"0.0-4.0-0.40","subject_id":"5f575958009e1a1de016301e","study_id":"6197b3f67c2b5cd3b6d9596a","session_id":"6197b9eace8258cd1857ae3c","condition":"full-information","relevant_dimensions":["antennae","wings"],"bee_group":{"antennae":"B","wings":"1","pattern":"X","legs":"X"},"action":"avoid","summary":"bad-avoid","bonus":1.160000000000001},{"rt":558,"stimulus":"\n                    <p><b>Action: <em>avoid</em></b></p>\n                    <p>This is the bee that you just saw.</p>\n                    <img src=\"bees-with-color/bee-A1SF.svg\" width=\"200\">\n                    <p><span class=\"redText\">Bad choice,</span> the bee was friendly.<br>Your bonus pay is unchanged, and remains at $0.68.</p>\n            ","response":0,"trial_type":"html-button-response","trial_index":88,"time_elapsed":242343,"internal_node_id":"0.0-4.0-1.40","subject_id":"5f575958009e1a1de016301e","study_id":"6197b3f67c2b5cd3b6d9596a","session_id":"6197b9eace8258cd1857ae3c","condition":"full-information","relevant_dimensions":["antennae","wings"],"bee_group":{"antennae":"B","wings":"1","pattern":"X","legs":"X"},"bonus":1.160000000000001},{"rt":695.2000000000698,"stimulus":"bees-with-color/bee-B2DF.svg","response":0,"trial_type":"image-button-response","trial_index":89,"time_elapsed":243039,"internal_node_id":"0.0-4.0-0.41","subject_id":"5f575958009e1a1de016301e","study_id":"6197b3f67c2b5cd3b6d9596a","session_id":"6197b9eace8258cd1857ae3c","condition":"full-information","relevant_dimensions":["antennae","wings"],"bee_group":{"antennae":"B","wings":"1","pattern":"X","legs":"X"},"action":"harvest","summary":"good-harvest","bonus":1.160000000000001},{"rt":575.8000000000466,"stimulus":"\n                    <p><b>Action: <em>harvest</em></b></p>\n                    <p>This is the bee that you just saw.</p>\n                    <img src=\"bees-with-color/bee-B2DF.svg\" width=\"200\">\n                    <p><span class=\"greenText\"><b>Successful harvest!</b></span><br>Your pay has increased by $0.02. Your bonus pay is now $0.70.</p>\n            ","response":0,"trial_type":"html-button-response","trial_index":90,"time_elapsed":243616,"internal_node_id":"0.0-4.0-1.41","subject_id":"5f575958009e1a1de016301e","study_id":"6197b3f67c2b5cd3b6d9596a","session_id":"6197b9eace8258cd1857ae3c","condition":"full-information","relevant_dimensions":["antennae","wings"],"bee_group":{"antennae":"B","wings":"1","pattern":"X","legs":"X"},"bonus":1.160000000000001},{"rt":629,"stimulus":"bees-with-color/bee-B2DM.svg","response":0,"trial_type":"image-button-response","trial_index":91,"time_elapsed":244246,"internal_node_id":"0.0-4.0-0.42","subject_id":"5f575958009e1a1de016301e","study_id":"6197b3f67c2b5cd3b6d9596a","session_id":"6197b9eace8258cd1857ae3c","condition":"full-information","relevant_dimensions":["antennae","wings"],"bee_group":{"antennae":"B","wings":"1","pattern":"X","legs":"X"},"action":"harvest","summary":"good-harvest","bonus":1.160000000000001},{"rt":601.9000000000233,"stimulus":"\n                    <p><b>Action: <em>harvest</em></b></p>\n                    <p>This is the bee that you just saw.</p>\n                    <img src=\"bees-with-color/bee-B2DM.svg\" width=\"200\">\n                    <p><span class=\"greenText\"><b>Successful harvest!</b></span><br>Your pay has increased by $0.02. Your bonus pay is now $0.72.</p>\n            ","response":0,"trial_type":"html-button-response","trial_index":92,"time_elapsed":244849,"internal_node_id":"0.0-4.0-1.42","subject_id":"5f575958009e1a1de016301e","study_id":"6197b3f67c2b5cd3b6d9596a","session_id":"6197b9eace8258cd1857ae3c","condition":"full-information","relevant_dimensions":["antennae","wings"],"bee_group":{"antennae":"B","wings":"1","pattern":"X","legs":"X"},"bonus":1.160000000000001},{"rt":1129.7999999999302,"stimulus":"bees-with-color/bee-A2SM.svg","response":0,"trial_type":"image-button-response","trial_index":93,"time_elapsed":245980,"internal_node_id":"0.0-4.0-0.43","subject_id":"5f575958009e1a1de016301e","study_id":"6197b3f67c2b5cd3b6d9596a","session_id":"6197b9eace8258cd1857ae3c","condition":"full-information","relevant_dimensions":["antennae","wings"],"bee_group":{"antennae":"B","wings":"1","pattern":"X","legs":"X"},"action":"harvest","summary":"good-harvest","bonus":1.160000000000001},{"rt":557.9000000000233,"stimulus":"\n                    <p><b>Action: <em>harvest</em></b></p>\n                    <p>This is the bee that you just saw.</p>\n                    <img src=\"bees-with-color/bee-A2SM.svg\" width=\"200\">\n                    <p><span class=\"greenText\"><b>Successful harvest!</b></span><br>Your pay has increased by $0.02. Your bonus pay is now $0.74.</p>\n            ","response":0,"trial_type":"html-button-response","trial_index":94,"time_elapsed":246539,"internal_node_id":"0.0-4.0-1.43","subject_id":"5f575958009e1a1de016301e","study_id":"6197b3f67c2b5cd3b6d9596a","session_id":"6197b9eace8258cd1857ae3c","condition":"full-information","relevant_dimensions":["antennae","wings"],"bee_group":{"antennae":"B","wings":"1","pattern":"X","legs":"X"},"bonus":1.160000000000001},{"rt":985.1000000000931,"stimulus":"bees-with-color/bee-A2SF.svg","response":0,"trial_type":"image-button-response","trial_index":95,"time_elapsed":247525,"internal_node_id":"0.0-4.0-0.44","subject_id":"5f575958009e1a1de016301e","study_id":"6197b3f67c2b5cd3b6d9596a","session_id":"6197b9eace8258cd1857ae3c","condition":"full-information","relevant_dimensions":["antennae","wings"],"bee_group":{"antennae":"B","wings":"1","pattern":"X","legs":"X"},"action":"harvest","summary":"good-harvest","bonus":1.160000000000001},{"rt":637.8999999999069,"stimulus":"\n                    <p><b>Action: <em>harvest</em></b></p>\n                    <p>This is the bee that you just saw.</p>\n                    <img src=\"bees-with-color/bee-A2SF.svg\" width=\"200\">\n                    <p><span class=\"greenText\"><b>Successful harvest!</b></span><br>Your pay has increased by $0.02. Your bonus pay is now $0.76.</p>\n            ","response":0,"trial_type":"html-button-response","trial_index":96,"time_elapsed":248164,"internal_node_id":"0.0-4.0-1.44","subject_id":"5f575958009e1a1de016301e","study_id":"6197b3f67c2b5cd3b6d9596a","session_id":"6197b9eace8258cd1857ae3c","condition":"full-information","relevant_dimensions":["antennae","wings"],"bee_group":{"antennae":"B","wings":"1","pattern":"X","legs":"X"},"bonus":1.160000000000001},{"rt":621.0999999999767,"stimulus":"bees-with-color/bee-B2SM.svg","response":0,"trial_type":"image-button-response","trial_index":97,"time_elapsed":248786,"internal_node_id":"0.0-4.0-0.45","subject_id":"5f575958009e1a1de016301e","study_id":"6197b3f67c2b5cd3b6d9596a","session_id":"6197b9eace8258cd1857ae3c","condition":"full-information","relevant_dimensions":["antennae","wings"],"bee_group":{"antennae":"B","wings":"1","pattern":"X","legs":"X"},"action":"harvest","summary":"good-harvest","bonus":1.160000000000001},{"rt":637.1000000000931,"stimulus":"\n                    <p><b>Action: <em>harvest</em></b></p>\n                    <p>This is the bee that you just saw.</p>\n                    <img src=\"bees-with-color/bee-B2SM.svg\" width=\"200\">\n                    <p><span class=\"greenText\"><b>Successful harvest!</b></span><br>Your pay has increased by $0.02. Your bonus pay is now $0.78.</p>\n            ","response":0,"trial_type":"html-button-response","trial_index":98,"time_elapsed":249424,"internal_node_id":"0.0-4.0-1.45","subject_id":"5f575958009e1a1de016301e","study_id":"6197b3f67c2b5cd3b6d9596a","session_id":"6197b9eace8258cd1857ae3c","condition":"full-information","relevant_dimensions":["antennae","wings"],"bee_group":{"antennae":"B","wings":"1","pattern":"X","legs":"X"},"bonus":1.160000000000001},{"rt":615,"stimulus":"bees-with-color/bee-B1SF.svg","response":0,"trial_type":"image-button-response","trial_index":99,"time_elapsed":250040,"internal_node_id":"0.0-4.0-0.46","subject_id":"5f575958009e1a1de016301e","study_id":"6197b3f67c2b5cd3b6d9596a","session_id":"6197b9eace8258cd1857ae3c","condition":"full-information","relevant_dimensions":["antennae","wings"],"bee_group":{"antennae":"B","wings":"1","pattern":"X","legs":"X"},"action":"harvest","summary":"bad-harvest","bonus":1.160000000000001},{"rt":1271,"stimulus":"\n                    <p><b>Action: <em>harvest</em></b></p>\n                    <p>This is the bee that you just saw.</p>\n                    <img src=\"bees-with-color/bee-B1SF.svg\" width=\"200\">\n                    <p><span class=\"redText\">Bad choice, the bee was angry.</span><br><b>You have been stung!</b><br>Your pay has been decreased by $0.10. Your bonus pay is now $0.68.</p>\n            ","response":0,"trial_type":"html-button-response","trial_index":100,"time_elapsed":251312,"internal_node_id":"0.0-4.0-1.46","subject_id":"5f575958009e1a1de016301e","study_id":"6197b3f67c2b5cd3b6d9596a","session_id":"6197b9eace8258cd1857ae3c","condition":"full-information","relevant_dimensions":["antennae","wings"],"bee_group":{"antennae":"B","wings":"1","pattern":"X","legs":"X"},"bonus":1.160000000000001},{"rt":1216,"stimulus":"bees-with-color/bee-B1SM.svg","response":1,"trial_type":"image-button-response","trial_index":101,"time_elapsed":252529,"internal_node_id":"0.0-4.0-0.47","subject_id":"5f575958009e1a1de016301e","study_id":"6197b3f67c2b5cd3b6d9596a","session_id":"6197b9eace8258cd1857ae3c","condition":"full-information","relevant_dimensions":["antennae","wings"],"bee_group":{"antennae":"B","wings":"1","pattern":"X","legs":"X"},"action":"avoid","summary":"good-avoid","bonus":1.160000000000001},{"rt":571.8999999999069,"stimulus":"\n                    <p><b>Action: <em>avoid</em></b></p>\n                    <p>This is the bee that you just saw.</p>\n                    <img src=\"bees-with-color/bee-B1SM.svg\" width=\"200\">\n                    <p><span class=\"greenText\">Good choice!</span>  This bee would have stung you.<br>Your bonus pay is unchanged, and remains at $0.68.</p>\n            ","response":0,"trial_type":"html-button-response","trial_index":102,"time_elapsed":253102,"internal_node_id":"0.0-4.0-1.47","subject_id":"5f575958009e1a1de016301e","study_id":"6197b3f67c2b5cd3b6d9596a","session_id":"6197b9eace8258cd1857ae3c","condition":"full-information","relevant_dimensions":["antennae","wings"],"bee_group":{"antennae":"B","wings":"1","pattern":"X","legs":"X"},"bonus":1.160000000000001},{"rt":705,"stimulus":"bees-with-color/bee-B1DM.svg","response":1,"trial_type":"image-button-response","trial_index":103,"time_elapsed":253808,"internal_node_id":"0.0-4.0-0.48","subject_id":"5f575958009e1a1de016301e","study_id":"6197b3f67c2b5cd3b6d9596a","session_id":"6197b9eace8258cd1857ae3c","condition":"full-information","relevant_dimensions":["antennae","wings"],"bee_group":{"antennae":"B","wings":"1","pattern":"X","legs":"X"},"action":"avoid","summary":"good-avoid","bonus":1.160000000000001},{"rt":583.9000000000233,"stimulus":"\n                    <p><b>Action: <em>avoid</em></b></p>\n                    <p>This is the bee that you just saw.</p>\n                    <img src=\"bees-with-color/bee-B1DM.svg\" width=\"200\">\n                    <p><span class=\"greenText\">Good choice!</span>  This bee would have stung you.<br>Your bonus pay is unchanged, and remains at $0.68.</p>\n            ","response":0,"trial_type":"html-button-response","trial_index":104,"time_elapsed":254393,"internal_node_id":"0.0-4.0-1.48","subject_id":"5f575958009e1a1de016301e","study_id":"6197b3f67c2b5cd3b6d9596a","session_id":"6197b9eace8258cd1857ae3c","condition":"full-information","relevant_dimensions":["antennae","wings"],"bee_group":{"antennae":"B","wings":"1","pattern":"X","legs":"X"},"bonus":1.160000000000001},{"rt":628.8999999999069,"stimulus":"bees-with-color/bee-B1SM.svg","response":1,"trial_type":"image-button-response","trial_index":105,"time_elapsed":255023,"internal_node_id":"0.0-4.0-0.49","subject_id":"5f575958009e1a1de016301e","study_id":"6197b3f67c2b5cd3b6d9596a","session_id":"6197b9eace8258cd1857ae3c","condition":"full-information","relevant_dimensions":["antennae","wings"],"bee_group":{"antennae":"B","wings":"1","pattern":"X","legs":"X"},"action":"avoid","summary":"good-avoid","bonus":1.160000000000001},{"rt":603,"stimulus":"\n                    <p><b>Action: <em>avoid</em></b></p>\n                    <p>This is the bee that you just saw.</p>\n                    <img src=\"bees-with-color/bee-B1SM.svg\" width=\"200\">\n                    <p><span class=\"greenText\">Good choice!</span>  This bee would have stung you.<br>Your bonus pay is unchanged, and remains at $0.68.</p>\n            ","response":0,"trial_type":"html-button-response","trial_index":106,"time_elapsed":255627,"internal_node_id":"0.0-4.0-1.49","subject_id":"5f575958009e1a1de016301e","study_id":"6197b3f67c2b5cd3b6d9596a","session_id":"6197b9eace8258cd1857ae3c","condition":"full-information","relevant_dimensions":["antennae","wings"],"bee_group":{"antennae":"B","wings":"1","pattern":"X","legs":"X"},"bonus":1.160000000000001},{"rt":915,"stimulus":"bees-with-color/bee-A2SF.svg","response":0,"trial_type":"image-button-response","trial_index":107,"time_elapsed":256543,"internal_node_id":"0.0-4.0-0.50","subject_id":"5f575958009e1a1de016301e","study_id":"6197b3f67c2b5cd3b6d9596a","session_id":"6197b9eace8258cd1857ae3c","condition":"full-information","relevant_dimensions":["antennae","wings"],"bee_group":{"antennae":"B","wings":"1","pattern":"X","legs":"X"},"action":"harvest","summary":"good-harvest","bonus":1.160000000000001},{"rt":544.9000000000233,"stimulus":"\n                    <p><b>Action: <em>harvest</em></b></p>\n                    <p>This is the bee that you just saw.</p>\n                    <img src=\"bees-with-color/bee-A2SF.svg\" width=\"200\">\n                    <p><span class=\"greenText\"><b>Successful harvest!</b></span><br>Your pay has increased by $0.02. Your bonus pay is now $0.70.</p>\n            ","response":0,"trial_type":"html-button-response","trial_index":108,"time_elapsed":257089,"internal_node_id":"0.0-4.0-1.50","subject_id":"5f575958009e1a1de016301e","study_id":"6197b3f67c2b5cd3b6d9596a","session_id":"6197b9eace8258cd1857ae3c","condition":"full-information","relevant_dimensions":["antennae","wings"],"bee_group":{"antennae":"B","wings":"1","pattern":"X","legs":"X"},"bonus":1.160000000000001},{"rt":913,"stimulus":"bees-with-color/bee-A1DM.svg","response":1,"trial_type":"image-button-response","trial_index":109,"time_elapsed":258003,"internal_node_id":"0.0-4.0-0.51","subject_id":"5f575958009e1a1de016301e","study_id":"6197b3f67c2b5cd3b6d9596a","session_id":"6197b9eace8258cd1857ae3c","condition":"full-information","relevant_dimensions":["antennae","wings"],"bee_group":{"antennae":"B","wings":"1","pattern":"X","legs":"X"},"action":"avoid","summary":"bad-avoid","bonus":1.160000000000001},{"rt":526,"stimulus":"\n                    <p><b>Action: <em>avoid</em></b></p>\n                    <p>This is the bee that you just saw.</p>\n                    <img src=\"bees-with-color/bee-A1DM.svg\" width=\"200\">\n                    <p><span class=\"redText\">Bad choice,</span> the bee was friendly.<br>Your bonus pay is unchanged, and remains at $0.70.</p>\n            ","response":0,"trial_type":"html-button-response","trial_index":110,"time_elapsed":258530,"internal_node_id":"0.0-4.0-1.51","subject_id":"5f575958009e1a1de016301e","study_id":"6197b3f67c2b5cd3b6d9596a","session_id":"6197b9eace8258cd1857ae3c","condition":"full-information","relevant_dimensions":["antennae","wings"],"bee_group":{"antennae":"B","wings":"1","pattern":"X","legs":"X"},"bonus":1.160000000000001},{"rt":586.2000000000698,"stimulus":"bees-with-color/bee-B2SM.svg","response":0,"trial_type":"image-button-response","trial_index":111,"time_elapsed":259117,"internal_node_id":"0.0-4.0-0.52","subject_id":"5f575958009e1a1de016301e","study_id":"6197b3f67c2b5cd3b6d9596a","session_id":"6197b9eace8258cd1857ae3c","condition":"full-information","relevant_dimensions":["antennae","wings"],"bee_group":{"antennae":"B","wings":"1","pattern":"X","legs":"X"},"action":"harvest","summary":"good-harvest","bonus":1.160000000000001},{"rt":563,"stimulus":"\n                    <p><b>Action: <em>harvest</em></b></p>\n                    <p>This is the bee that you just saw.</p>\n                    <img src=\"bees-with-color/bee-B2SM.svg\" width=\"200\">\n                    <p><span class=\"greenText\"><b>Successful harvest!</b></span><br>Your pay has increased by $0.02. Your bonus pay is now $0.72.</p>\n            ","response":0,"trial_type":"html-button-response","trial_index":112,"time_elapsed":259681,"internal_node_id":"0.0-4.0-1.52","subject_id":"5f575958009e1a1de016301e","study_id":"6197b3f67c2b5cd3b6d9596a","session_id":"6197b9eace8258cd1857ae3c","condition":"full-information","relevant_dimensions":["antennae","wings"],"bee_group":{"antennae":"B","wings":"1","pattern":"X","legs":"X"},"bonus":1.160000000000001},{"rt":989.1000000000931,"stimulus":"bees-with-color/bee-B2DF.svg","response":0,"trial_type":"image-button-response","trial_index":113,"time_elapsed":260671,"internal_node_id":"0.0-4.0-0.53","subject_id":"5f575958009e1a1de016301e","study_id":"6197b3f67c2b5cd3b6d9596a","session_id":"6197b9eace8258cd1857ae3c","condition":"full-information","relevant_dimensions":["antennae","wings"],"bee_group":{"antennae":"B","wings":"1","pattern":"X","legs":"X"},"action":"harvest","summary":"good-harvest","bonus":1.160000000000001},{"rt":578,"stimulus":"\n                    <p><b>Action: <em>harvest</em></b></p>\n                    <p>This is the bee that you just saw.</p>\n                    <img src=\"bees-with-color/bee-B2DF.svg\" width=\"200\">\n                    <p><span class=\"greenText\"><b>Successful harvest!</b></span><br>Your pay has increased by $0.02. Your bonus pay is now $0.74.</p>\n            ","response":0,"trial_type":"html-button-response","trial_index":114,"time_elapsed":261250,"internal_node_id":"0.0-4.0-1.53","subject_id":"5f575958009e1a1de016301e","study_id":"6197b3f67c2b5cd3b6d9596a","session_id":"6197b9eace8258cd1857ae3c","condition":"full-information","relevant_dimensions":["antennae","wings"],"bee_group":{"antennae":"B","wings":"1","pattern":"X","legs":"X"},"bonus":1.160000000000001},{"rt":603.1000000000931,"stimulus":"bees-with-color/bee-B2SF.svg","response":0,"trial_type":"image-button-response","trial_index":115,"time_elapsed":261854,"internal_node_id":"0.0-4.0-0.54","subject_id":"5f575958009e1a1de016301e","study_id":"6197b3f67c2b5cd3b6d9596a","session_id":"6197b9eace8258cd1857ae3c","condition":"full-information","relevant_dimensions":["antennae","wings"],"bee_group":{"antennae":"B","wings":"1","pattern":"X","legs":"X"},"action":"harvest","summary":"good-harvest","bonus":1.160000000000001},{"rt":549,"stimulus":"\n                    <p><b>Action: <em>harvest</em></b></p>\n                    <p>This is the bee that you just saw.</p>\n                    <img src=\"bees-with-color/bee-B2SF.svg\" width=\"200\">\n                    <p><span class=\"greenText\"><b>Successful harvest!</b></span><br>Your pay has increased by $0.02. Your bonus pay is now $0.76.</p>\n            ","response":0,"trial_type":"html-button-response","trial_index":116,"time_elapsed":262404,"internal_node_id":"0.0-4.0-1.54","subject_id":"5f575958009e1a1de016301e","study_id":"6197b3f67c2b5cd3b6d9596a","session_id":"6197b9eace8258cd1857ae3c","condition":"full-information","relevant_dimensions":["antennae","wings"],"bee_group":{"antennae":"B","wings":"1","pattern":"X","legs":"X"},"bonus":1.160000000000001},{"rt":609,"stimulus":"bees-with-color/bee-A2DF.svg","response":0,"trial_type":"image-button-response","trial_index":117,"time_elapsed":263014,"internal_node_id":"0.0-4.0-0.55","subject_id":"5f575958009e1a1de016301e","study_id":"6197b3f67c2b5cd3b6d9596a","session_id":"6197b9eace8258cd1857ae3c","condition":"full-information","relevant_dimensions":["antennae","wings"],"bee_group":{"antennae":"B","wings":"1","pattern":"X","legs":"X"},"action":"harvest","summary":"good-harvest","bonus":1.160000000000001},{"rt":614,"stimulus":"\n                    <p><b>Action: <em>harvest</em></b></p>\n                    <p>This is the bee that you just saw.</p>\n                    <img src=\"bees-with-color/bee-A2DF.svg\" width=\"200\">\n                    <p><span class=\"greenText\"><b>Successful harvest!</b></span><br>Your pay has increased by $0.02. Your bonus pay is now $0.78.</p>\n            ","response":0,"trial_type":"html-button-response","trial_index":118,"time_elapsed":263629,"internal_node_id":"0.0-4.0-1.55","subject_id":"5f575958009e1a1de016301e","study_id":"6197b3f67c2b5cd3b6d9596a","session_id":"6197b9eace8258cd1857ae3c","condition":"full-information","relevant_dimensions":["antennae","wings"],"bee_group":{"antennae":"B","wings":"1","pattern":"X","legs":"X"},"bonus":1.160000000000001},{"rt":927.2000000000698,"stimulus":"bees-with-color/bee-B1DF.svg","response":1,"trial_type":"image-button-response","trial_index":119,"time_elapsed":264557,"internal_node_id":"0.0-4.0-0.56","subject_id":"5f575958009e1a1de016301e","study_id":"6197b3f67c2b5cd3b6d9596a","session_id":"6197b9eace8258cd1857ae3c","condition":"full-information","relevant_dimensions":["antennae","wings"],"bee_group":{"antennae":"B","wings":"1","pattern":"X","legs":"X"},"action":"avoid","summary":"good-avoid","bonus":1.160000000000001},{"rt":480.79999999993015,"stimulus":"\n                    <p><b>Action: <em>avoid</em></b></p>\n                    <p>This is the bee that you just saw.</p>\n                    <img src=\"bees-with-color/bee-B1DF.svg\" width=\"200\">\n                    <p><span class=\"greenText\">Good choice!</span>  This bee would have stung you.<br>Your bonus pay is unchanged, and remains at $0.78.</p>\n            ","response":0,"trial_type":"html-button-response","trial_index":120,"time_elapsed":265039,"internal_node_id":"0.0-4.0-1.56","subject_id":"5f575958009e1a1de016301e","study_id":"6197b3f67c2b5cd3b6d9596a","session_id":"6197b9eace8258cd1857ae3c","condition":"full-information","relevant_dimensions":["antennae","wings"],"bee_group":{"antennae":"B","wings":"1","pattern":"X","legs":"X"},"bonus":1.160000000000001},{"rt":663.2000000000698,"stimulus":"bees-with-color/bee-A2DM.svg","response":0,"trial_type":"image-button-response","trial_index":121,"time_elapsed":265703,"internal_node_id":"0.0-4.0-0.57","subject_id":"5f575958009e1a1de016301e","study_id":"6197b3f67c2b5cd3b6d9596a","session_id":"6197b9eace8258cd1857ae3c","condition":"full-information","relevant_dimensions":["antennae","wings"],"bee_group":{"antennae":"B","wings":"1","pattern":"X","legs":"X"},"action":"harvest","summary":"good-harvest","bonus":1.160000000000001},{"rt":540.9000000000233,"stimulus":"\n                    <p><b>Action: <em>harvest</em></b></p>\n                    <p>This is the bee that you just saw.</p>\n                    <img src=\"bees-with-color/bee-A2DM.svg\" width=\"200\">\n                    <p><span class=\"greenText\"><b>Successful harvest!</b></span><br>Your pay has increased by $0.02. Your bonus pay is now $0.80.</p>\n            ","response":0,"trial_type":"html-button-response","trial_index":122,"time_elapsed":266245,"internal_node_id":"0.0-4.0-1.57","subject_id":"5f575958009e1a1de016301e","study_id":"6197b3f67c2b5cd3b6d9596a","session_id":"6197b9eace8258cd1857ae3c","condition":"full-information","relevant_dimensions":["antennae","wings"],"bee_group":{"antennae":"B","wings":"1","pattern":"X","legs":"X"},"bonus":1.160000000000001},{"rt":1002.7999999999302,"stimulus":"bees-with-color/bee-A1SM.svg","response":1,"trial_type":"image-button-response","trial_index":123,"time_elapsed":267249,"internal_node_id":"0.0-4.0-0.58","subject_id":"5f575958009e1a1de016301e","study_id":"6197b3f67c2b5cd3b6d9596a","session_id":"6197b9eace8258cd1857ae3c","condition":"full-information","relevant_dimensions":["antennae","wings"],"bee_group":{"antennae":"B","wings":"1","pattern":"X","legs":"X"},"action":"avoid","summary":"bad-avoid","bonus":1.160000000000001},{"rt":496.9000000000233,"stimulus":"\n                    <p><b>Action: <em>avoid</em></b></p>\n                    <p>This is the bee that you just saw.</p>\n                    <img src=\"bees-with-color/bee-A1SM.svg\" width=\"200\">\n                    <p><span class=\"redText\">Bad choice,</span> the bee was friendly.<br>Your bonus pay is unchanged, and remains at $0.80.</p>\n            ","response":0,"trial_type":"html-button-response","trial_index":124,"time_elapsed":267747,"internal_node_id":"0.0-4.0-1.58","subject_id":"5f575958009e1a1de016301e","study_id":"6197b3f67c2b5cd3b6d9596a","session_id":"6197b9eace8258cd1857ae3c","condition":"full-information","relevant_dimensions":["antennae","wings"],"bee_group":{"antennae":"B","wings":"1","pattern":"X","legs":"X"},"bonus":1.160000000000001},{"rt":730,"stimulus":"bees-with-color/bee-A1SF.svg","response":1,"trial_type":"image-button-response","trial_index":125,"time_elapsed":268478,"internal_node_id":"0.0-4.0-0.59","subject_id":"5f575958009e1a1de016301e","study_id":"6197b3f67c2b5cd3b6d9596a","session_id":"6197b9eace8258cd1857ae3c","condition":"full-information","relevant_dimensions":["antennae","wings"],"bee_group":{"antennae":"B","wings":"1","pattern":"X","legs":"X"},"action":"avoid","summary":"bad-avoid","bonus":1.160000000000001},{"rt":547.1000000000931,"stimulus":"\n                    <p><b>Action: <em>avoid</em></b></p>\n                    <p>This is the bee that you just saw.</p>\n                    <img src=\"bees-with-color/bee-A1SF.svg\" width=\"200\">\n                    <p><span class=\"redText\">Bad choice,</span> the bee was friendly.<br>Your bonus pay is unchanged, and remains at $0.80.</p>\n            ","response":0,"trial_type":"html-button-response","trial_index":126,"time_elapsed":269026,"internal_node_id":"0.0-4.0-1.59","subject_id":"5f575958009e1a1de016301e","study_id":"6197b3f67c2b5cd3b6d9596a","session_id":"6197b9eace8258cd1857ae3c","condition":"full-information","relevant_dimensions":["antennae","wings"],"bee_group":{"antennae":"B","wings":"1","pattern":"X","legs":"X"},"bonus":1.160000000000001},{"rt":659.1000000000931,"stimulus":"bees-with-color/bee-A2SM.svg","response":0,"trial_type":"image-button-response","trial_index":127,"time_elapsed":269686,"internal_node_id":"0.0-4.0-0.60","subject_id":"5f575958009e1a1de016301e","study_id":"6197b3f67c2b5cd3b6d9596a","session_id":"6197b9eace8258cd1857ae3c","condition":"full-information","relevant_dimensions":["antennae","wings"],"bee_group":{"antennae":"B","wings":"1","pattern":"X","legs":"X"},"action":"harvest","summary":"good-harvest","bonus":1.160000000000001},{"rt":612.1000000000931,"stimulus":"\n                    <p><b>Action: <em>harvest</em></b></p>\n                    <p>This is the bee that you just saw.</p>\n                    <img src=\"bees-with-color/bee-A2SM.svg\" width=\"200\">\n                    <p><span class=\"greenText\"><b>Successful harvest!</b></span><br>Your pay has increased by $0.02. Your bonus pay is now $0.82.</p>\n            ","response":0,"trial_type":"html-button-response","trial_index":128,"time_elapsed":270299,"internal_node_id":"0.0-4.0-1.60","subject_id":"5f575958009e1a1de016301e","study_id":"6197b3f67c2b5cd3b6d9596a","session_id":"6197b9eace8258cd1857ae3c","condition":"full-information","relevant_dimensions":["antennae","wings"],"bee_group":{"antennae":"B","wings":"1","pattern":"X","legs":"X"},"bonus":1.160000000000001},{"rt":631.3000000000466,"stimulus":"bees-with-color/bee-B2DM.svg","response":0,"trial_type":"image-button-response","trial_index":129,"time_elapsed":270931,"internal_node_id":"0.0-4.0-0.61","subject_id":"5f575958009e1a1de016301e","study_id":"6197b3f67c2b5cd3b6d9596a","session_id":"6197b9eace8258cd1857ae3c","condition":"full-information","relevant_dimensions":["antennae","wings"],"bee_group":{"antennae":"B","wings":"1","pattern":"X","legs":"X"},"action":"harvest","summary":"good-harvest","bonus":1.160000000000001},{"rt":541.1000000000931,"stimulus":"\n                    <p><b>Action: <em>harvest</em></b></p>\n                    <p>This is the bee that you just saw.</p>\n                    <img src=\"bees-with-color/bee-B2DM.svg\" width=\"200\">\n                    <p><span class=\"greenText\"><b>Successful harvest!</b></span><br>Your pay has increased by $0.02. Your bonus pay is now $0.84.</p>\n            ","response":0,"trial_type":"html-button-response","trial_index":130,"time_elapsed":271473,"internal_node_id":"0.0-4.0-1.61","subject_id":"5f575958009e1a1de016301e","study_id":"6197b3f67c2b5cd3b6d9596a","session_id":"6197b9eace8258cd1857ae3c","condition":"full-information","relevant_dimensions":["antennae","wings"],"bee_group":{"antennae":"B","wings":"1","pattern":"X","legs":"X"},"bonus":1.160000000000001},{"rt":1451,"stimulus":"bees-with-color/bee-B1SF.svg","response":1,"trial_type":"image-button-response","trial_index":131,"time_elapsed":272925,"internal_node_id":"0.0-4.0-0.62","subject_id":"5f575958009e1a1de016301e","study_id":"6197b3f67c2b5cd3b6d9596a","session_id":"6197b9eace8258cd1857ae3c","condition":"full-information","relevant_dimensions":["antennae","wings"],"bee_group":{"antennae":"B","wings":"1","pattern":"X","legs":"X"},"action":"avoid","summary":"good-avoid","bonus":1.160000000000001},{"rt":592,"stimulus":"\n                    <p><b>Action: <em>avoid</em></b></p>\n                    <p>This is the bee that you just saw.</p>\n                    <img src=\"bees-with-color/bee-B1SF.svg\" width=\"200\">\n                    <p><span class=\"greenText\">Good choice!</span>  This bee would have stung you.<br>Your bonus pay is unchanged, and remains at $0.84.</p>\n            ","response":0,"trial_type":"html-button-response","trial_index":132,"time_elapsed":273518,"internal_node_id":"0.0-4.0-1.62","subject_id":"5f575958009e1a1de016301e","study_id":"6197b3f67c2b5cd3b6d9596a","session_id":"6197b9eace8258cd1857ae3c","condition":"full-information","relevant_dimensions":["antennae","wings"],"bee_group":{"antennae":"B","wings":"1","pattern":"X","legs":"X"},"bonus":1.160000000000001},{"rt":817.1000000000931,"stimulus":"bees-with-color/bee-A1DF.svg","response":1,"trial_type":"image-button-response","trial_index":133,"time_elapsed":274336,"internal_node_id":"0.0-4.0-0.63","subject_id":"5f575958009e1a1de016301e","study_id":"6197b3f67c2b5cd3b6d9596a","session_id":"6197b9eace8258cd1857ae3c","condition":"full-information","relevant_dimensions":["antennae","wings"],"bee_group":{"antennae":"B","wings":"1","pattern":"X","legs":"X"},"action":"avoid","summary":"bad-avoid","bonus":1.160000000000001},{"rt":488.69999999995343,"stimulus":"\n                    <p><b>Action: <em>avoid</em></b></p>\n                    <p>This is the bee that you just saw.</p>\n                    <img src=\"bees-with-color/bee-A1DF.svg\" width=\"200\">\n                    <p><span class=\"redText\">Bad choice,</span> the bee was friendly.<br>Your bonus pay is unchanged, and remains at $0.84.</p>\n            ","response":0,"trial_type":"html-button-response","trial_index":134,"time_elapsed":274826,"internal_node_id":"0.0-4.0-1.63","subject_id":"5f575958009e1a1de016301e","study_id":"6197b3f67c2b5cd3b6d9596a","session_id":"6197b9eace8258cd1857ae3c","condition":"full-information","relevant_dimensions":["antennae","wings"],"bee_group":{"antennae":"B","wings":"1","pattern":"X","legs":"X"},"bonus":1.160000000000001},{"rt":7186.5,"stimulus":"You have completed the first part of this experiment.<br><br>You will now begin a shorter second part, in which you will receive no feedback.<br>The same rules regarding bonus pay apply.<br><br>Press any key to begin.","response":" ","trial_type":"html-keyboard-response","trial_index":135,"time_elapsed":282013,"internal_node_id":"0.0-5.0","subject_id":"5f575958009e1a1de016301e","study_id":"6197b3f67c2b5cd3b6d9596a","session_id":"6197b9eace8258cd1857ae3c","condition":"full-information","relevant_dimensions":["antennae","wings"],"bee_group":{"antennae":"B","wings":"1","pattern":"X","legs":"X"},"bonus":1.160000000000001},{"rt":1471.3000000000466,"stimulus":"bees-with-color/bee-A1DM.svg","response":1,"trial_type":"image-button-response","trial_index":136,"time_elapsed":283491,"internal_node_id":"0.0-6.0-0.0","subject_id":"5f575958009e1a1de016301e","study_id":"6197b3f67c2b5cd3b6d9596a","session_id":"6197b9eace8258cd1857ae3c","condition":"full-information","relevant_dimensions":["antennae","wings"],"bee_group":{"antennae":"B","wings":"1","pattern":"X","legs":"X"},"bonus":1.160000000000001},{"rt":1469.4000000000233,"stimulus":"bees-with-color/bee-B1DM.svg","response":1,"trial_type":"image-button-response","trial_index":137,"time_elapsed":284962,"internal_node_id":"0.0-6.0-0.1","subject_id":"5f575958009e1a1de016301e","study_id":"6197b3f67c2b5cd3b6d9596a","session_id":"6197b9eace8258cd1857ae3c","condition":"full-information","relevant_dimensions":["antennae","wings"],"bee_group":{"antennae":"B","wings":"1","pattern":"X","legs":"X"},"bonus":1.160000000000001},{"rt":1929.5999999999767,"stimulus":"bees-with-color/bee-A2DM.svg","response":0,"trial_type":"image-button-response","trial_index":138,"time_elapsed":286893,"internal_node_id":"0.0-6.0-0.2","subject_id":"5f575958009e1a1de016301e","study_id":"6197b3f67c2b5cd3b6d9596a","session_id":"6197b9eace8258cd1857ae3c","condition":"full-information","relevant_dimensions":["antennae","wings"],"bee_group":{"antennae":"B","wings":"1","pattern":"X","legs":"X"},"bonus":1.160000000000001},{"rt":1841.8000000000466,"stimulus":"bees-with-color/bee-B2DF.svg","response":0,"trial_type":"image-button-response","trial_index":139,"time_elapsed":288736,"internal_node_id":"0.0-6.0-0.3","subject_id":"5f575958009e1a1de016301e","study_id":"6197b3f67c2b5cd3b6d9596a","session_id":"6197b9eace8258cd1857ae3c","condition":"full-information","relevant_dimensions":["antennae","wings"],"bee_group":{"antennae":"B","wings":"1","pattern":"X","legs":"X"},"bonus":1.160000000000001},{"rt":652.7000000000698,"stimulus":"bees-with-color/bee-B2SF.svg","response":0,"trial_type":"image-button-response","trial_index":140,"time_elapsed":289390,"internal_node_id":"0.0-6.0-0.4","subject_id":"5f575958009e1a1de016301e","study_id":"6197b3f67c2b5cd3b6d9596a","session_id":"6197b9eace8258cd1857ae3c","condition":"full-information","relevant_dimensions":["antennae","wings"],"bee_group":{"antennae":"B","wings":"1","pattern":"X","legs":"X"},"bonus":1.160000000000001},{"rt":620.3999999999069,"stimulus":"bees-with-color/bee-B2SM.svg","response":0,"trial_type":"image-button-response","trial_index":141,"time_elapsed":290012,"internal_node_id":"0.0-6.0-0.5","subject_id":"5f575958009e1a1de016301e","study_id":"6197b3f67c2b5cd3b6d9596a","session_id":"6197b9eace8258cd1857ae3c","condition":"full-information","relevant_dimensions":["antennae","wings"],"bee_group":{"antennae":"B","wings":"1","pattern":"X","legs":"X"},"bonus":1.160000000000001},{"rt":1332.7000000000698,"stimulus":"bees-with-color/bee-B1SM.svg","response":1,"trial_type":"image-button-response","trial_index":142,"time_elapsed":291346,"internal_node_id":"0.0-6.0-0.6","subject_id":"5f575958009e1a1de016301e","study_id":"6197b3f67c2b5cd3b6d9596a","session_id":"6197b9eace8258cd1857ae3c","condition":"full-information","relevant_dimensions":["antennae","wings"],"bee_group":{"antennae":"B","wings":"1","pattern":"X","legs":"X"},"bonus":1.160000000000001},{"rt":738.7000000000698,"stimulus":"bees-with-color/bee-A1SM.svg","response":1,"trial_type":"image-button-response","trial_index":143,"time_elapsed":292086,"internal_node_id":"0.0-6.0-0.7","subject_id":"5f575958009e1a1de016301e","study_id":"6197b3f67c2b5cd3b6d9596a","session_id":"6197b9eace8258cd1857ae3c","condition":"full-information","relevant_dimensions":["antennae","wings"],"bee_group":{"antennae":"B","wings":"1","pattern":"X","legs":"X"},"bonus":1.160000000000001},{"rt":660.8000000000466,"stimulus":"bees-with-color/bee-B1SF.svg","response":1,"trial_type":"image-button-response","trial_index":144,"time_elapsed":292748,"internal_node_id":"0.0-6.0-0.8","subject_id":"5f575958009e1a1de016301e","study_id":"6197b3f67c2b5cd3b6d9596a","session_id":"6197b9eace8258cd1857ae3c","condition":"full-information","relevant_dimensions":["antennae","wings"],"bee_group":{"antennae":"B","wings":"1","pattern":"X","legs":"X"},"bonus":1.160000000000001},{"rt":663.7000000000698,"stimulus":"bees-with-color/bee-A1SF.svg","response":1,"trial_type":"image-button-response","trial_index":145,"time_elapsed":293413,"internal_node_id":"0.0-6.0-0.9","subject_id":"5f575958009e1a1de016301e","study_id":"6197b3f67c2b5cd3b6d9596a","session_id":"6197b9eace8258cd1857ae3c","condition":"full-information","relevant_dimensions":["antennae","wings"],"bee_group":{"antennae":"B","wings":"1","pattern":"X","legs":"X"},"bonus":1.160000000000001},{"rt":733.6000000000931,"stimulus":"bees-with-color/bee-B1DF.svg","response":1,"trial_type":"image-button-response","trial_index":146,"time_elapsed":294148,"internal_node_id":"0.0-6.0-0.10","subject_id":"5f575958009e1a1de016301e","study_id":"6197b3f67c2b5cd3b6d9596a","session_id":"6197b9eace8258cd1857ae3c","condition":"full-information","relevant_dimensions":["antennae","wings"],"bee_group":{"antennae":"B","wings":"1","pattern":"X","legs":"X"},"bonus":1.160000000000001},{"rt":685.6000000000931,"stimulus":"bees-with-color/bee-B2DM.svg","response":0,"trial_type":"image-button-response","trial_index":147,"time_elapsed":294835,"internal_node_id":"0.0-6.0-0.11","subject_id":"5f575958009e1a1de016301e","study_id":"6197b3f67c2b5cd3b6d9596a","session_id":"6197b9eace8258cd1857ae3c","condition":"full-information","relevant_dimensions":["antennae","wings"],"bee_group":{"antennae":"B","wings":"1","pattern":"X","legs":"X"},"bonus":1.160000000000001},{"rt":614.7000000000698,"stimulus":"bees-with-color/bee-A2SM.svg","response":0,"trial_type":"image-button-response","trial_index":148,"time_elapsed":295451,"internal_node_id":"0.0-6.0-0.12","subject_id":"5f575958009e1a1de016301e","study_id":"6197b3f67c2b5cd3b6d9596a","session_id":"6197b9eace8258cd1857ae3c","condition":"full-information","relevant_dimensions":["antennae","wings"],"bee_group":{"antennae":"B","wings":"1","pattern":"X","legs":"X"},"bonus":1.160000000000001},{"rt":826.5,"stimulus":"bees-with-color/bee-A2DF.svg","response":0,"trial_type":"image-button-response","trial_index":149,"time_elapsed":296278,"internal_node_id":"0.0-6.0-0.13","subject_id":"5f575958009e1a1de016301e","study_id":"6197b3f67c2b5cd3b6d9596a","session_id":"6197b9eace8258cd1857ae3c","condition":"full-information","relevant_dimensions":["antennae","wings"],"bee_group":{"antennae":"B","wings":"1","pattern":"X","legs":"X"},"bonus":1.160000000000001},{"rt":629.2000000000698,"stimulus":"bees-with-color/bee-A2SF.svg","response":0,"trial_type":"image-button-response","trial_index":150,"time_elapsed":296909,"internal_node_id":"0.0-6.0-0.14","subject_id":"5f575958009e1a1de016301e","study_id":"6197b3f67c2b5cd3b6d9596a","session_id":"6197b9eace8258cd1857ae3c","condition":"full-information","relevant_dimensions":["antennae","wings"],"bee_group":{"antennae":"B","wings":"1","pattern":"X","legs":"X"},"bonus":1.160000000000001},{"rt":999.5,"stimulus":"bees-with-color/bee-A1DF.svg","response":1,"trial_type":"image-button-response","trial_index":151,"time_elapsed":297910,"internal_node_id":"0.0-6.0-0.15","subject_id":"5f575958009e1a1de016301e","study_id":"6197b3f67c2b5cd3b6d9596a","session_id":"6197b9eace8258cd1857ae3c","condition":"full-information","relevant_dimensions":["antennae","wings"],"bee_group":{"antennae":"B","wings":"1","pattern":"X","legs":"X"},"bonus":1.160000000000001},{"rt":703.7000000000698,"stimulus":"bees-with-color/bee-B2DF.svg","response":0,"trial_type":"image-button-response","trial_index":152,"time_elapsed":298615,"internal_node_id":"0.0-6.0-0.16","subject_id":"5f575958009e1a1de016301e","study_id":"6197b3f67c2b5cd3b6d9596a","session_id":"6197b9eace8258cd1857ae3c","condition":"full-information","relevant_dimensions":["antennae","wings"],"bee_group":{"antennae":"B","wings":"1","pattern":"X","legs":"X"},"bonus":1.160000000000001},{"rt":813.8000000000466,"stimulus":"bees-with-color/bee-A1SM.svg","response":1,"trial_type":"image-button-response","trial_index":153,"time_elapsed":299430,"internal_node_id":"0.0-6.0-0.17","subject_id":"5f575958009e1a1de016301e","study_id":"6197b3f67c2b5cd3b6d9596a","session_id":"6197b9eace8258cd1857ae3c","condition":"full-information","relevant_dimensions":["antennae","wings"],"bee_group":{"antennae":"B","wings":"1","pattern":"X","legs":"X"},"bonus":1.160000000000001},{"rt":867.8000000000466,"stimulus":"bees-with-color/bee-A1DF.svg","response":1,"trial_type":"image-button-response","trial_index":154,"time_elapsed":300299,"internal_node_id":"0.0-6.0-0.18","subject_id":"5f575958009e1a1de016301e","study_id":"6197b3f67c2b5cd3b6d9596a","session_id":"6197b9eace8258cd1857ae3c","condition":"full-information","relevant_dimensions":["antennae","wings"],"bee_group":{"antennae":"B","wings":"1","pattern":"X","legs":"X"},"bonus":1.160000000000001},{"rt":605.6000000000931,"stimulus":"bees-with-color/bee-B1DM.svg","response":1,"trial_type":"image-button-response","trial_index":155,"time_elapsed":300906,"internal_node_id":"0.0-6.0-0.19","subject_id":"5f575958009e1a1de016301e","study_id":"6197b3f67c2b5cd3b6d9596a","session_id":"6197b9eace8258cd1857ae3c","condition":"full-information","relevant_dimensions":["antennae","wings"],"bee_group":{"antennae":"B","wings":"1","pattern":"X","legs":"X"},"bonus":1.160000000000001},{"rt":678.6000000000931,"stimulus":"bees-with-color/bee-B2DM.svg","response":0,"trial_type":"image-button-response","trial_index":156,"time_elapsed":301586,"internal_node_id":"0.0-6.0-0.20","subject_id":"5f575958009e1a1de016301e","study_id":"6197b3f67c2b5cd3b6d9596a","session_id":"6197b9eace8258cd1857ae3c","condition":"full-information","relevant_dimensions":["antennae","wings"],"bee_group":{"antennae":"B","wings":"1","pattern":"X","legs":"X"},"bonus":1.160000000000001},{"rt":561.7000000000698,"stimulus":"bees-with-color/bee-B2SM.svg","response":0,"trial_type":"image-button-response","trial_index":157,"time_elapsed":302149,"internal_node_id":"0.0-6.0-0.21","subject_id":"5f575958009e1a1de016301e","study_id":"6197b3f67c2b5cd3b6d9596a","session_id":"6197b9eace8258cd1857ae3c","condition":"full-information","relevant_dimensions":["antennae","wings"],"bee_group":{"antennae":"B","wings":"1","pattern":"X","legs":"X"},"bonus":1.160000000000001},{"rt":693.9000000000233,"stimulus":"bees-with-color/bee-B2SF.svg","respo