[{"success":true,"trial_type":"fullscreen","trial_index":0,"time_elapsed":3794,"internal_node_id":"0.0-0.0","subject_id":"61607b22aede63bd986af738","study_id":"60edd13110225f80f9f3709b","session_id":"6196c1f6239a38ae3b688523","condition":"contingent","relevant_dimensions":["wings","legs"],"bee_group":{"antennae":"X","wings":"2","pattern":"X","legs":"F"},"bonus":1.0000000000000009},{"success":true,"timeout":false,"failed_images":[],"failed_audio":[],"failed_video":[],"trial_type":"preload","trial_index":1,"time_elapsed":13428,"internal_node_id":"0.0-1.0","subject_id":"61607b22aede63bd986af738","study_id":"60edd13110225f80f9f3709b","session_id":"6196c1f6239a38ae3b688523","condition":"contingent","relevant_dimensions":["wings","legs"],"bee_group":{"antennae":"X","wings":"2","pattern":"X","legs":"F"},"bonus":1.0000000000000009},{"rt":1335,"stimulus":"Welcome! Press any key to begin.","response":"l","trial_type":"html-keyboard-response","trial_index":2,"time_elapsed":14765,"internal_node_id":"0.0-2.0","subject_id":"61607b22aede63bd986af738","study_id":"60edd13110225f80f9f3709b","session_id":"6196c1f6239a38ae3b688523","condition":"contingent","relevant_dimensions":["wings","legs"],"bee_group":{"antennae":"X","wings":"2","pattern":"X","legs":"F"},"bonus":1.0000000000000009},{"view_history":[{"page_index":0,"viewing_time":4094},{"page_index":1,"viewing_time":11048},{"page_index":2,"viewing_time":27135},{"page_index":3,"viewing_time":25017},{"page_index":4,"viewing_time":5168},{"page_index":5,"viewing_time":9823},{"page_index":6,"viewing_time":11656},{"page_index":7,"viewing_time":3360},{"page_index":8,"viewing_time":2473},{"page_index":9,"viewing_time":2880},{"page_index":10,"viewing_time":1487},{"page_index":11,"viewing_time":6905},{"page_index":12,"viewing_time":4200},{"page_index":13,"viewing_time":991},{"page_index":14,"viewing_time":1601}],"rt":117838,"trial_type":"instructions","trial_index":3,"time_elapsed":132603,"internal_node_id":"0.0-3.0-0.0","subject_id":"61607b22aede63bd986af738","study_id":"60edd13110225f80f9f3709b","session_id":"6196c1f6239a38ae3b688523","condition":"contingent","relevant_dimensions":["wings","legs"],"bee_group":{"antennae":"X","wings":"2","pattern":"X","legs":"F"},"bonus":1.0000000000000009},{"rt":7951,"response":{"Q0":["Two or six legs","Stripes or spots on body","Single or double wings","Antennae or no antennae"]},"question_order":[0],"trial_type":"survey-multi-select","trial_index":4,"time_elapsed":140558,"internal_node_id":"0.0-3.0-1.0","subject_id":"61607b22aede63bd986af738","study_id":"60edd13110225f80f9f3709b","session_id":"6196c1f6239a38ae3b688523","condition":"contingent","relevant_dimensions":["wings","legs"],"bee_group":{"antennae":"X","wings":"2","pattern":"X","legs":"F"},"correct":true,"bonus":1.0000000000000009},{"rt":26530,"response":{"Q1":"No.","Q2":"Based on the four features of the bee.","Q3":"You do not learn if it was friendly or dangerous, and do not alter your bonus."},"question_order":[0,1,2],"trial_type":"survey-multi-choice","trial_index":5,"time_elapsed":167091,"internal_node_id":"0.0-3.0-2.0","subject_id":"61607b22aede63bd986af738","study_id":"60edd13110225f80f9f3709b","session_id":"6196c1f6239a38ae3b688523","condition":"contingent","relevant_dimensions":["wings","legs"],"bee_group":{"antennae":"X","wings":"2","pattern":"X","legs":"F"},"correct":true,"bonus":1.0000000000000009},{"rt":1758,"stimulus":"<p>Congrats, you got everything right<br>When you're ready, click the button below to continue to the experiment.</p>","response":0,"trial_type":"html-button-response","trial_index":6,"time_elapsed":168850,"internal_node_id":"0.0-3.0-3.0","subject_id":"61607b22aede63bd986af738","study_id":"60edd13110225f80f9f3709b","session_id":"6196c1f6239a38ae3b688523","condition":"contingent","relevant_dimensions":["wings","legs"],"bee_group":{"antennae":"X","wings":"2","pattern":"X","legs":"F"},"bonus":1.0000000000000009},{"rt":7632,"stimulus":"bees-with-color/bee-A1DM.svg","response":0,"trial_type":"image-button-response","trial_index":7,"time_elapsed":176483,"internal_node_id":"0.0-4.0-0.0","subject_id":"61607b22aede63bd986af738","study_id":"60edd13110225f80f9f3709b","session_id":"6196c1f6239a38ae3b688523","condition":"contingent","relevant_dimensions":["wings","legs"],"bee_group":{"antennae":"X","wings":"2","pattern":"X","legs":"F"},"action":"harvest","summary":"good-harvest","bonus":1.0000000000000009},{"rt":2090,"stimulus":"\n                    <p><b>Action: <em>harvest</em></b></p>\n                    <p>This is the bee that you just saw.</p>\n                    <img src=\"bees-with-color/bee-A1DM.svg\" width=\"200\">\n                    <p><span class=\"greenText\"><b>Successful harvest!</b></span><br>Your pay has increased by $0.02. Your bonus pay is now $0.56.</p>\n            ","response":0,"trial_type":"html-button-response","trial_index":8,"time_elapsed":178602,"internal_node_id":"0.0-4.0-1.0","subject_id":"61607b22aede63bd986af738","study_id":"60edd13110225f80f9f3709b","session_id":"6196c1f6239a38ae3b688523","condition":"contingent","relevant_dimensions":["wings","legs"],"bee_group":{"antennae":"X","wings":"2","pattern":"X","legs":"F"},"bonus":1.0000000000000009},{"rt":3750,"stimulus":"bees-with-color/bee-A1SM.svg","response":0,"trial_type":"image-button-response","trial_index":9,"time_elapsed":182355,"internal_node_id":"0.0-4.0-0.1","subject_id":"61607b22aede63bd986af738","study_id":"60edd13110225f80f9f3709b","session_id":"6196c1f6239a38ae3b688523","condition":"contingent","relevant_dimensions":["wings","legs"],"bee_group":{"antennae":"X","wings":"2","pattern":"X","legs":"F"},"action":"harvest","summary":"good-harvest","bonus":1.0000000000000009},{"rt":3597,"stimulus":"\n                    <p><b>Action: <em>harvest</em></b></p>\n                    <p>This is the bee that you just saw.</p>\n                    <img src=\"bees-with-color/bee-A1SM.svg\" width=\"200\">\n                    <p><span class=\"greenText\"><b>Successful harvest!</b></span><br>Your pay has increased by $0.02. Your bonus pay is now $0.58.</p>\n            ","response":0,"trial_type":"html-button-response","trial_index":10,"time_elapsed":185954,"internal_node_id":"0.0-4.0-1.1","subject_id":"61607b22aede63bd986af738","study_id":"60edd13110225f80f9f3709b","session_id":"6196c1f6239a38ae3b688523","condition":"contingent","relevant_dimensions":["wings","legs"],"bee_group":{"antennae":"X","wings":"2","pattern":"X","legs":"F"},"bonus":1.0000000000000009},{"rt":4392,"stimulus":"bees-with-color/bee-B2DM.svg","response":1,"trial_type":"image-button-response","trial_index":11,"time_elapsed":190346,"internal_node_id":"0.0-4.0-0.2","subject_id":"61607b22aede63bd986af738","study_id":"60edd13110225f80f9f3709b","session_id":"6196c1f6239a38ae3b688523","condition":"contingent","relevant_dimensions":["wings","legs"],"bee_group":{"antennae":"X","wings":"2","pattern":"X","legs":"F"},"action":"avoid","summary":"bad-avoid","bonus":1.0000000000000009},{"rt":3453,"stimulus":"\n                    <p><b>Action: <em>avoid</em></b></p>\n                    <p>This is the bee that you just saw.</p>\n                    <img src=\"bees-with-color/bee-B2DM.svg\" width=\"200\">\n                    <p><br>Your bonus pay is unchanged, and remains at $0.58.</p>\n            ","response":0,"trial_type":"html-button-response","trial_index":12,"time_elapsed":193802,"internal_node_id":"0.0-4.0-1.2","subject_id":"61607b22aede63bd986af738","study_id":"60edd13110225f80f9f3709b","session_id":"6196c1f6239a38ae3b688523","condition":"contingent","relevant_dimensions":["wings","legs"],"bee_group":{"antennae":"X","wings":"2","pattern":"X","legs":"F"},"bonus":1.0000000000000009},{"rt":1766,"stimulus":"bees-with-color/bee-A2SF.svg","response":0,"trial_type":"image-button-response","trial_index":13,"time_elapsed":195570,"internal_node_id":"0.0-4.0-0.3","subject_id":"61607b22aede63bd986af738","study_id":"60edd13110225f80f9f3709b","session_id":"6196c1f6239a38ae3b688523","condition":"contingent","relevant_dimensions":["wings","legs"],"bee_group":{"antennae":"X","wings":"2","pattern":"X","legs":"F"},"action":"harvest","summary":"bad-harvest","bonus":1.0000000000000009},{"rt":4588,"stimulus":"\n                    <p><b>Action: <em>harvest</em></b></p>\n                    <p>This is the bee that you just saw.</p>\n                    <img src=\"bees-with-color/bee-A2SF.svg\" width=\"200\">\n                    <p><span class=\"redText\">Bad choice, the bee was angry.</span><br><b>You have been stung!</b><br>Your pay has been decreased by $0.10. Your bonus pay is now $0.48.</p>\n            ","response":0,"trial_type":"html-button-response","trial_index":14,"time_elapsed":200160,"internal_node_id":"0.0-4.0-1.3","subject_id":"61607b22aede63bd986af738","study_id":"60edd13110225f80f9f3709b","session_id":"6196c1f6239a38ae3b688523","condition":"contingent","relevant_dimensions":["wings","legs"],"bee_group":{"antennae":"X","wings":"2","pattern":"X","legs":"F"},"bonus":1.0000000000000009},{"rt":5041,"stimulus":"bees-with-color/bee-B2SM.svg","response":0,"trial_type":"image-button-response","trial_index":15,"time_elapsed":205202,"internal_node_id":"0.0-4.0-0.4","subject_id":"61607b22aede63bd986af738","study_id":"60edd13110225f80f9f3709b","session_id":"6196c1f6239a38ae3b688523","condition":"contingent","relevant_dimensions":["wings","legs"],"bee_group":{"antennae":"X","wings":"2","pattern":"X","legs":"F"},"action":"harvest","summary":"good-harvest","bonus":1.0000000000000009},{"rt":2319,"stimulus":"\n                    <p><b>Action: <em>harvest</em></b></p>\n                    <p>This is the bee that you just saw.</p>\n                    <img src=\"bees-with-color/bee-B2SM.svg\" width=\"200\">\n                    <p><span class=\"greenText\"><b>Successful harvest!</b></span><br>Your pay has increased by $0.02. Your bonus pay is now $0.50.</p>\n            ","response":0,"trial_type":"html-button-response","trial_index":16,"time_elapsed":207522,"internal_node_id":"0.0-4.0-1.4","subject_id":"61607b22aede63bd986af738","study_id":"60edd13110225f80f9f3709b","session_id":"6196c1f6239a38ae3b688523","condition":"contingent","relevant_dimensions":["wings","legs"],"bee_group":{"antennae":"X","wings":"2","pattern":"X","legs":"F"},"bonus":1.0000000000000009},{"rt":4766,"stimulus":"bees-with-color/bee-B1DM.svg","response":0,"trial_type":"image-button-response","trial_index":17,"time_elapsed":212291,"internal_node_id":"0.0-4.0-0.5","subject_id":"61607b22aede63bd986af738","study_id":"60edd13110225f80f9f3709b","session_id":"6196c1f6239a38ae3b688523","condition":"contingent","relevant_dimensions":["wings","legs"],"bee_group":{"antennae":"X","wings":"2","pattern":"X","legs":"F"},"action":"harvest","summary":"good-harvest","bonus":1.0000000000000009},{"rt":1262,"stimulus":"\n                    <p><b>Action: <em>harvest</em></b></p>\n                    <p>This is the bee that you just saw.</p>\n                    <img src=\"bees-with-color/bee-B1DM.svg\" width=\"200\">\n                    <p><span class=\"greenText\"><b>Successful harvest!</b></span><br>Your pay has increased by $0.02. Your bonus pay is now $0.52.</p>\n            ","response":0,"trial_type":"html-button-response","trial_index":18,"time_elapsed":213554,"internal_node_id":"0.0-4.0-1.5","subject_id":"61607b22aede63bd986af738","study_id":"60edd13110225f80f9f3709b","session_id":"6196c1f6239a38ae3b688523","condition":"contingent","relevant_dimensions":["wings","legs"],"bee_group":{"antennae":"X","wings":"2","pattern":"X","legs":"F"},"bonus":1.0000000000000009},{"rt":2159,"stimulus":"bees-with-color/bee-B2SF.svg","response":0,"trial_type":"image-button-response","trial_index":19,"time_elapsed":215714,"internal_node_id":"0.0-4.0-0.6","subject_id":"61607b22aede63bd986af738","study_id":"60edd13110225f80f9f3709b","session_id":"6196c1f6239a38ae3b688523","condition":"contingent","relevant_dimensions":["wings","legs"],"bee_group":{"antennae":"X","wings":"2","pattern":"X","legs":"F"},"action":"harvest","summary":"bad-harvest","bonus":1.0000000000000009},{"rt":3751,"stimulus":"\n                    <p><b>Action: <em>harvest</em></b></p>\n                    <p>This is the bee that you just saw.</p>\n                    <img src=\"bees-with-color/bee-B2SF.svg\" width=\"200\">\n                    <p><span class=\"redText\">Bad choice, the bee was angry.</span><br><b>You have been stung!</b><br>Your pay has been decreased by $0.10. Your bonus pay is now $0.42.</p>\n            ","response":0,"trial_type":"html-button-response","trial_index":20,"time_elapsed":219467,"internal_node_id":"0.0-4.0-1.6","subject_id":"61607b22aede63bd986af738","study_id":"60edd13110225f80f9f3709b","session_id":"6196c1f6239a38ae3b688523","condition":"contingent","relevant_dimensions":["wings","legs"],"bee_group":{"antennae":"X","wings":"2","pattern":"X","legs":"F"},"bonus":1.0000000000000009},{"rt":2774,"stimulus":"bees-with-color/bee-B1DF.svg","response":0,"trial_type":"image-button-response","trial_index":21,"time_elapsed":222242,"internal_node_id":"0.0-4.0-0.7","subject_id":"61607b22aede63bd986af738","study_id":"60edd13110225f80f9f3709b","session_id":"6196c1f6239a38ae3b688523","condition":"contingent","relevant_dimensions":["wings","legs"],"bee_group":{"antennae":"X","wings":"2","pattern":"X","legs":"F"},"action":"harvest","summary":"good-harvest","bonus":1.0000000000000009},{"rt":2454,"stimulus":"\n                    <p><b>Action: <em>harvest</em></b></p>\n                    <p>This is the bee that you just saw.</p>\n                    <img src=\"bees-with-color/bee-B1DF.svg\" width=\"200\">\n                    <p><span class=\"greenText\"><b>Successful harvest!</b></span><br>Your pay has increased by $0.02. Your bonus pay is now $0.44.</p>\n            ","response":0,"trial_type":"html-button-response","trial_index":22,"time_elapsed":224698,"internal_node_id":"0.0-4.0-1.7","subject_id":"61607b22aede63bd986af738","study_id":"60edd13110225f80f9f3709b","session_id":"6196c1f6239a38ae3b688523","condition":"contingent","relevant_dimensions":["wings","legs"],"bee_group":{"antennae":"X","wings":"2","pattern":"X","legs":"F"},"bonus":1.0000000000000009},{"rt":2983,"stimulus":"bees-with-color/bee-A2DM.svg","response":1,"trial_type":"image-button-response","trial_index":23,"time_elapsed":227682,"internal_node_id":"0.0-4.0-0.8","subject_id":"61607b22aede63bd986af738","study_id":"60edd13110225f80f9f3709b","session_id":"6196c1f6239a38ae3b688523","condition":"contingent","relevant_dimensions":["wings","legs"],"bee_group":{"antennae":"X","wings":"2","pattern":"X","legs":"F"},"action":"avoid","summary":"bad-avoid","bonus":1.0000000000000009},{"rt":958,"stimulus":"\n                    <p><b>Action: <em>avoid</em></b></p>\n                    <p>This is the bee that you just saw.</p>\n                    <img src=\"bees-with-color/bee-A2DM.svg\" width=\"200\">\n                    <p><br>Your bonus pay is unchanged, and remains at $0.44.</p>\n            ","response":0,"trial_type":"html-button-response","trial_index":24,"time_elapsed":228642,"internal_node_id":"0.0-4.0-1.8","subject_id":"61607b22aede63bd986af738","study_id":"60edd13110225f80f9f3709b","session_id":"6196c1f6239a38ae3b688523","condition":"contingent","relevant_dimensions":["wings","legs"],"bee_group":{"antennae":"X","wings":"2","pattern":"X","legs":"F"},"bonus":1.0000000000000009},{"rt":3526,"stimulus":"bees-with-color/bee-A2DF.svg","response":1,"trial_type":"image-button-response","trial_index":25,"time_elapsed":232171,"internal_node_id":"0.0-4.0-0.9","subject_id":"61607b22aede63bd986af738","study_id":"60edd13110225f80f9f3709b","session_id":"6196c1f6239a38ae3b688523","condition":"contingent","relevant_dimensions":["wings","legs"],"bee_group":{"antennae":"X","wings":"2","pattern":"X","legs":"F"},"action":"avoid","summary":"good-avoid","bonus":1.0000000000000009},{"rt":927,"stimulus":"\n                    <p><b>Action: <em>avoid</em></b></p>\n                    <p>This is the bee that you just saw.</p>\n                    <img src=\"bees-with-color/bee-A2DF.svg\" width=\"200\">\n                    <p><br>Your bonus pay is unchanged, and remains at $0.44.</p>\n            ","response":0,"trial_type":"html-button-response","trial_index":26,"time_elapsed":233098,"internal_node_id":"0.0-4.0-1.9","subject_id":"61607b22aede63bd986af738","study_id":"60edd13110225f80f9f3709b","session_id":"6196c1f6239a38ae3b688523","condition":"contingent","relevant_dimensions":["wings","legs"],"bee_group":{"antennae":"X","wings":"2","pattern":"X","legs":"F"},"bonus":1.0000000000000009},{"rt":1120,"stimulus":"bees-with-color/bee-A1SF.svg","response":0,"trial_type":"image-button-response","trial_index":27,"time_elapsed":234218,"internal_node_id":"0.0-4.0-0.10","subject_id":"61607b22aede63bd986af738","study_id":"60edd13110225f80f9f3709b","session_id":"6196c1f6239a38ae3b688523","condition":"contingent","relevant_dimensions":["wings","legs"],"bee_group":{"antennae":"X","wings":"2","pattern":"X","legs":"F"},"action":"harvest","summary":"good-harvest","bonus":1.0000000000000009},{"rt":815,"stimulus":"\n                    <p><b>Action: <em>harvest</em></b></p>\n                    <p>This is the bee that you just saw.</p>\n                    <img src=\"bees-with-color/bee-A1SF.svg\" width=\"200\">\n                    <p><span class=\"greenText\"><b>Successful harvest!</b></span><br>Your pay has increased by $0.02. Your bonus pay is now $0.46.</p>\n            ","response":0,"trial_type":"html-button-response","trial_index":28,"time_elapsed":235034,"internal_node_id":"0.0-4.0-1.10","subject_id":"61607b22aede63bd986af738","study_id":"60edd13110225f80f9f3709b","session_id":"6196c1f6239a38ae3b688523","condition":"contingent","relevant_dimensions":["wings","legs"],"bee_group":{"antennae":"X","wings":"2","pattern":"X","legs":"F"},"bonus":1.0000000000000009},{"rt":2054,"stimulus":"bees-with-color/bee-A1DF.svg","response":0,"trial_type":"image-button-response","trial_index":29,"time_elapsed":237091,"internal_node_id":"0.0-4.0-0.11","subject_id":"61607b22aede63bd986af738","study_id":"60edd13110225f80f9f3709b","session_id":"6196c1f6239a38ae3b688523","condition":"contingent","relevant_dimensions":["wings","legs"],"bee_group":{"antennae":"X","wings":"2","pattern":"X","legs":"F"},"action":"harvest","summary":"good-harvest","bonus":1.0000000000000009},{"rt":767,"stimulus":"\n                    <p><b>Action: <em>harvest</em></b></p>\n                    <p>This is the bee that you just saw.</p>\n                    <img src=\"bees-with-color/bee-A1DF.svg\" width=\"200\">\n                    <p><span class=\"greenText\"><b>Successful harvest!</b></span><br>Your pay has increased by $0.02. Your bonus pay is now $0.48.</p>\n            ","response":0,"trial_type":"html-button-response","trial_index":30,"time_elapsed":237859,"internal_node_id":"0.0-4.0-1.11","subject_id":"61607b22aede63bd986af738","study_id":"60edd13110225f80f9f3709b","session_id":"6196c1f6239a38ae3b688523","condition":"contingent","relevant_dimensions":["wings","legs"],"bee_group":{"antennae":"X","wings":"2","pattern":"X","legs":"F"},"bonus":1.0000000000000009},{"rt":2734,"stimulus":"bees-with-color/bee-B1SM.svg","response":0,"trial_type":"image-button-response","trial_index":31,"time_elapsed":240594,"internal_node_id":"0.0-4.0-0.12","subject_id":"61607b22aede63bd986af738","study_id":"60edd13110225f80f9f3709b","session_id":"6196c1f6239a38ae3b688523","condition":"contingent","relevant_dimensions":["wings","legs"],"bee_group":{"antennae":"X","wings":"2","pattern":"X","legs":"F"},"action":"harvest","summary":"good-harvest","bonus":1.0000000000000009},{"rt":736,"stimulus":"\n                    <p><b>Action: <em>harvest</em></b></p>\n                    <p>This is the bee that you just saw.</p>\n                    <img src=\"bees-with-color/bee-B1SM.svg\" width=\"200\">\n                    <p><span class=\"greenText\"><b>Successful harvest!</b></span><br>Your pay has increased by $0.02. Your bonus pay is now $0.50.</p>\n            ","response":0,"trial_type":"html-button-response","trial_index":32,"time_elapsed":241330,"internal_node_id":"0.0-4.0-1.12","subject_id":"61607b22aede63bd986af738","study_id":"60edd13110225f80f9f3709b","session_id":"6196c1f6239a38ae3b688523","condition":"contingent","relevant_dimensions":["wings","legs"],"bee_group":{"antennae":"X","wings":"2","pattern":"X","legs":"F"},"bonus":1.0000000000000009},{"rt":1582,"stimulus":"bees-with-color/bee-A2SM.svg","response":1,"trial_type":"image-button-response","trial_index":33,"time_elapsed":242914,"internal_node_id":"0.0-4.0-0.13","subject_id":"61607b22aede63bd986af738","study_id":"60edd13110225f80f9f3709b","session_id":"6196c1f6239a38ae3b688523","condition":"contingent","relevant_dimensions":["wings","legs"],"bee_group":{"antennae":"X","wings":"2","pattern":"X","legs":"F"},"action":"avoid","summary":"bad-avoid","bonus":1.0000000000000009},{"rt":624,"stimulus":"\n                    <p><b>Action: <em>avoid</em></b></p>\n                    <p>This is the bee that you just saw.</p>\n                    <img src=\"bees-with-color/bee-A2SM.svg\" width=\"200\">\n                    <p><br>Your bonus pay is unchanged, and remains at $0.50.</p>\n            ","response":0,"trial_type":"html-button-response","trial_index":34,"time_elapsed":243538,"internal_node_id":"0.0-4.0-1.13","subject_id":"61607b22aede63bd986af738","study_id":"60edd13110225f80f9f3709b","session_id":"6196c1f6239a38ae3b688523","condition":"contingent","relevant_dimensions":["wings","legs"],"bee_group":{"antennae":"X","wings":"2","pattern":"X","legs":"F"},"bonus":1.0000000000000009},{"rt":2312,"stimulus":"bees-with-color/bee-B2DF.svg","response":0,"trial_type":"image-button-response","trial_index":35,"time_elapsed":245850,"internal_node_id":"0.0-4.0-0.14","subject_id":"61607b22aede63bd986af738","study_id":"60edd13110225f80f9f3709b","session_id":"6196c1f6239a38ae3b688523","condition":"contingent","relevant_dimensions":["wings","legs"],"bee_group":{"antennae":"X","wings":"2","pattern":"X","legs":"F"},"action":"harvest","summary":"bad-harvest","bonus":1.0000000000000009},{"rt":1991,"stimulus":"\n                    <p><b>Action: <em>harvest</em></b></p>\n                    <p>This is the bee that you just saw.</p>\n                    <img src=\"bees-with-color/bee-B2DF.svg\" width=\"200\">\n                    <p><span class=\"redText\">Bad choice, the bee was angry.</span><br><b>You have been stung!</b><br>Your pay has been decreased by $0.10. Your bonus pay is now $0.40.</p>\n            ","response":0,"trial_type":"html-button-response","trial_index":36,"time_elapsed":247842,"internal_node_id":"0.0-4.0-1.14","subject_id":"61607b22aede63bd986af738","study_id":"60edd13110225f80f9f3709b","session_id":"6196c1f6239a38ae3b688523","condition":"contingent","relevant_dimensions":["wings","legs"],"bee_group":{"antennae":"X","wings":"2","pattern":"X","legs":"F"},"bonus":1.0000000000000009},{"rt":1310,"stimulus":"bees-with-color/bee-B1SF.svg","response":0,"trial_type":"image-button-response","trial_index":37,"time_elapsed":249154,"internal_node_id":"0.0-4.0-0.15","subject_id":"61607b22aede63bd986af738","study_id":"60edd13110225f80f9f3709b","session_id":"6196c1f6239a38ae3b688523","condition":"contingent","relevant_dimensions":["wings","legs"],"bee_group":{"antennae":"X","wings":"2","pattern":"X","legs":"F"},"action":"harvest","summary":"good-harvest","bonus":1.0000000000000009},{"rt":728,"stimulus":"\n                    <p><b>Action: <em>harvest</em></b></p>\n                    <p>This is the bee that you just saw.</p>\n                    <img src=\"bees-with-color/bee-B1SF.svg\" width=\"200\">\n                    <p><span class=\"greenText\"><b>Successful harvest!</b></span><br>Your pay has increased by $0.02. Your bonus pay is now $0.42.</p>\n            ","response":0,"trial_type":"html-button-response","trial_index":38,"time_elapsed":249882,"internal_node_id":"0.0-4.0-1.15","subject_id":"61607b22aede63bd986af738","study_id":"60edd13110225f80f9f3709b","session_id":"6196c1f6239a38ae3b688523","condition":"contingent","relevant_dimensions":["wings","legs"],"bee_group":{"antennae":"X","wings":"2","pattern":"X","legs":"F"},"bonus":1.0000000000000009},{"rt":1158,"stimulus":"bees-with-color/bee-A2DF.svg","response":1,"trial_type":"image-button-response","trial_index":39,"time_elapsed":251043,"internal_node_id":"0.0-4.0-0.16","subject_id":"61607b22aede63bd986af738","study_id":"60edd13110225f80f9f3709b","session_id":"6196c1f6239a38ae3b688523","condition":"contingent","relevant_dimensions":["wings","legs"],"bee_group":{"antennae":"X","wings":"2","pattern":"X","legs":"F"},"action":"avoid","summary":"good-avoid","bonus":1.0000000000000009},{"rt":766,"stimulus":"\n                    <p><b>Action: <em>avoid</em></b></p>\n                    <p>This is the bee that you just saw.</p>\n                    <img src=\"bees-with-color/bee-A2DF.svg\" width=\"200\">\n                    <p><br>Your bonus pay is unchanged, and remains at $0.42.</p>\n            ","response":0,"trial_type":"html-button-response","trial_index":40,"time_elapsed":251810,"internal_node_id":"0.0-4.0-1.16","subject_id":"61607b22aede63bd986af738","study_id":"60edd13110225f80f9f3709b","session_id":"6196c1f6239a38ae3b688523","condition":"contingent","relevant_dimensions":["wings","legs"],"bee_group":{"antennae":"X","wings":"2","pattern":"X","legs":"F"},"bonus":1.0000000000000009},{"rt":1727,"stimulus":"bees-with-color/bee-B2DM.svg","response":1,"trial_type":"image-button-response","trial_index":41,"time_elapsed":253538,"internal_node_id":"0.0-4.0-0.17","subject_id":"61607b22aede63bd986af738","study_id":"60edd13110225f80f9f3709b","session_id":"6196c1f6239a38ae3b688523","condition":"contingent","relevant_dimensions":["wings","legs"],"bee_group":{"antennae":"X","wings":"2","pattern":"X","legs":"F"},"action":"avoid","summary":"bad-avoid","bonus":1.0000000000000009},{"rt":575,"stimulus":"\n                    <p><b>Action: <em>avoid</em></b></p>\n                    <p>This is the bee that you just saw.</p>\n                    <img src=\"bees-with-color/bee-B2DM.svg\" width=\"200\">\n                    <p><br>Your bonus pay is unchanged, and remains at $0.42.</p>\n            ","response":0,"trial_type":"html-button-response","trial_index":42,"time_elapsed":254114,"internal_node_id":"0.0-4.0-1.17","subject_id":"61607b22aede63bd986af738","study_id":"60edd13110225f80f9f3709b","session_id":"6196c1f6239a38ae3b688523","condition":"contingent","relevant_dimensions":["wings","legs"],"bee_group":{"antennae":"X","wings":"2","pattern":"X","legs":"F"},"bonus":1.0000000000000009},{"rt":887,"stimulus":"bees-with-color/bee-A1DF.svg","response":0,"trial_type":"image-button-response","trial_index":43,"time_elapsed":255002,"internal_node_id":"0.0-4.0-0.18","subject_id":"61607b22aede63bd986af738","study_id":"60edd13110225f80f9f3709b","session_id":"6196c1f6239a38ae3b688523","condition":"contingent","relevant_dimensions":["wings","legs"],"bee_group":{"antennae":"X","wings":"2","pattern":"X","legs":"F"},"action":"harvest","summary":"good-harvest","bonus":1.0000000000000009},{"rt":487,"stimulus":"\n                    <p><b>Action: <em>harvest</em></b></p>\n                    <p>This is the bee that you just saw.</p>\n                    <img src=\"bees-with-color/bee-A1DF.svg\" width=\"200\">\n                    <p><span class=\"greenText\"><b>Successful harvest!</b></span><br>Your pay has increased by $0.02. Your bonus pay is now $0.44.</p>\n            ","response":0,"trial_type":"html-button-response","trial_index":44,"time_elapsed":255491,"internal_node_id":"0.0-4.0-1.18","subject_id":"61607b22aede63bd986af738","study_id":"60edd13110225f80f9f3709b","session_id":"6196c1f6239a38ae3b688523","condition":"contingent","relevant_dimensions":["wings","legs"],"bee_group":{"antennae":"X","wings":"2","pattern":"X","legs":"F"},"bonus":1.0000000000000009},{"rt":656,"stimulus":"bees-with-color/bee-A2SF.svg","response":1,"trial_type":"image-button-response","trial_index":45,"time_elapsed":256146,"internal_node_id":"0.0-4.0-0.19","subject_id":"61607b22aede63bd986af738","study_id":"60edd13110225f80f9f3709b","session_id":"6196c1f6239a38ae3b688523","condition":"contingent","relevant_dimensions":["wings","legs"],"bee_group":{"antennae":"X","wings":"2","pattern":"X","legs":"F"},"action":"avoid","summary":"good-avoid","bonus":1.0000000000000009},{"rt":415,"stimulus":"\n                    <p><b>Action: <em>avoid</em></b></p>\n                    <p>This is the bee that you just saw.</p>\n                    <img src=\"bees-with-color/bee-A2SF.svg\" width=\"200\">\n                    <p><br>Your bonus pay is unchanged, and remains at $0.44.</p>\n            ","response":0,"trial_type":"html-button-response","trial_index":46,"time_elapsed":256562,"internal_node_id":"0.0-4.0-1.19","subject_id":"61607b22aede63bd986af738","study_id":"60edd13110225f80f9f3709b","session_id":"6196c1f6239a38ae3b688523","condition":"contingent","relevant_dimensions":["wings","legs"],"bee_group":{"antennae":"X","wings":"2","pattern":"X","legs":"F"},"bonus":1.0000000000000009},{"rt":791,"stimulus":"bees-with-color/bee-A2DM.svg","response":1,"trial_type":"image-button-response","trial_index":47,"time_elapsed":257354,"internal_node_id":"0.0-4.0-0.20","subject_id":"61607b22aede63bd986af738","study_id":"60edd13110225f80f9f3709b","session_id":"6196c1f6239a38ae3b688523","condition":"contingent","relevant_dimensions":["wings","legs"],"bee_group":{"antennae":"X","wings":"2","pattern":"X","legs":"F"},"action":"avoid","summary":"bad-avoid","bonus":1.0000000000000009},{"rt":775,"stimulus":"\n                    <p><b>Action: <em>avoid</em></b></p>\n                    <p>This is the bee that you just saw.</p>\n                    <img src=\"bees-with-color/bee-A2DM.svg\" width=\"200\">\n                    <p><br>Your bonus pay is unchanged, and remains at $0.44.</p>\n            ","response":0,"trial_type":"html-button-response","trial_index":48,"time_elapsed":258130,"internal_node_id":"0.0-4.0-1.20","subject_id":"61607b22aede63bd986af738","study_id":"60edd13110225f80f9f3709b","session_id":"6196c1f6239a38ae3b688523","condition":"contingent","relevant_dimensions":["wings","legs"],"bee_group":{"antennae":"X","wings":"2","pattern":"X","legs":"F"},"bonus":1.0000000000000009},{"rt":1087,"stimulus":"bees-with-color/bee-B1DM.svg","response":0,"trial_type":"image-button-response","trial_index":49,"time_elapsed":259218,"internal_node_id":"0.0-4.0-0.21","subject_id":"61607b22aede63bd986af738","study_id":"60edd13110225f80f9f3709b","session_id":"6196c1f6239a38ae3b688523","condition":"contingent","relevant_dimensions":["wings","legs"],"bee_group":{"antennae":"X","wings":"2","pattern":"X","legs":"F"},"action":"harvest","summary":"good-harvest","bonus":1.0000000000000009},{"rt":551,"stimulus":"\n                    <p><b>Action: <em>harvest</em></b></p>\n                    <p>This is the bee that you just saw.</p>\n                    <img src=\"bees-with-color/bee-B1DM.svg\" width=\"200\">\n                    <p><span class=\"greenText\"><b>Successful harvest!</b></span><br>Your pay has increased by $0.02. Your bonus pay is now $0.46.</p>\n            ","response":0,"trial_type":"html-button-response","trial_index":50,"time_elapsed":259770,"internal_node_id":"0.0-4.0-1.21","subject_id":"61607b22aede63bd986af738","study_id":"60edd13110225f80f9f3709b","session_id":"6196c1f6239a38ae3b688523","condition":"contingent","relevant_dimensions":["wings","legs"],"bee_group":{"antennae":"X","wings":"2","pattern":"X","legs":"F"},"bonus":1.0000000000000009},{"rt":568,"stimulus":"bees-with-color/bee-B1SF.svg","response":0,"trial_type":"image-button-response","trial_index":51,"time_elapsed":260338,"internal_node_id":"0.0-4.0-0.22","subject_id":"61607b22aede63bd986af738","study_id":"60edd13110225f80f9f3709b","session_id":"6196c1f6239a38ae3b688523","condition":"contingent","relevant_dimensions":["wings","legs"],"bee_group":{"antennae":"X","wings":"2","pattern":"X","legs":"F"},"action":"harvest","summary":"good-harvest","bonus":1.0000000000000009},{"rt":519,"stimulus":"\n                    <p><b>Action: <em>harvest</em></b></p>\n                    <p>This is the bee that you just saw.</p>\n                    <img src=\"bees-with-color/bee-B1SF.svg\" width=\"200\">\n                    <p><span class=\"greenText\"><b>Successful harvest!</b></span><br>Your pay has increased by $0.02. Your bonus pay is now $0.48.</p>\n            ","response":0,"trial_type":"html-button-response","trial_index":52,"time_elapsed":260858,"internal_node_id":"0.0-4.0-1.22","subject_id":"61607b22aede63bd986af738","study_id":"60edd13110225f80f9f3709b","session_id":"6196c1f6239a38ae3b688523","condition":"contingent","relevant_dimensions":["wings","legs"],"bee_group":{"antennae":"X","wings":"2","pattern":"X","legs":"F"},"bonus":1.0000000000000009},{"rt":535,"stimulus":"bees-with-color/bee-B1DF.svg","response":0,"trial_type":"image-button-response","trial_index":53,"time_elapsed":261394,"internal_node_id":"0.0-4.0-0.23","subject_id":"61607b22aede63bd986af738","study_id":"60edd13110225f80f9f3709b","session_id":"6196c1f6239a38ae3b688523","condition":"contingent","relevant_dimensions":["wings","legs"],"bee_group":{"antennae":"X","wings":"2","pattern":"X","legs":"F"},"action":"harvest","summary":"good-harvest","bonus":1.0000000000000009},{"rt":575,"stimulus":"\n                    <p><b>Action: <em>harvest</em></b></p>\n                    <p>This is the bee that you just saw.</p>\n                    <img src=\"bees-with-color/bee-B1DF.svg\" width=\"200\">\n                    <p><span class=\"greenText\"><b>Successful harvest!</b></span><br>Your pay has increased by $0.02. Your bonus pay is now $0.50.</p>\n            ","response":0,"trial_type":"html-button-response","trial_index":54,"time_elapsed":261970,"internal_node_id":"0.0-4.0-1.23","subject_id":"61607b22aede63bd986af738","study_id":"60edd13110225f80f9f3709b","session_id":"6196c1f6239a38ae3b688523","condition":"contingent","relevant_dimensions":["wings","legs"],"bee_group":{"antennae":"X","wings":"2","pattern":"X","legs":"F"},"bonus":1.0000000000000009},{"rt":567,"stimulus":"bees-with-color/bee-B1SM.svg","response":0,"trial_type":"image-button-response","trial_index":55,"time_elapsed":262539,"internal_node_id":"0.0-4.0-0.24","subject_id":"61607b22aede63bd986af738","study_id":"60edd13110225f80f9f3709b","session_id":"6196c1f6239a38ae3b688523","condition":"contingent","relevant_dimensions":["wings","legs"],"bee_group":{"antennae":"X","wings":"2","pattern":"X","legs":"F"},"action":"harvest","summary":"good-harvest","bonus":1.0000000000000009},{"rt":575,"stimulus":"\n                    <p><b>Action: <em>harvest</em></b></p>\n                    <p>This is the bee that you just saw.</p>\n                    <img src=\"bees-with-color/bee-B1SM.svg\" width=\"200\">\n                    <p><span class=\"greenText\"><b>Successful harvest!</b></span><br>Your pay has increased by $0.02. Your bonus pay is now $0.52.</p>\n            ","response":0,"trial_type":"html-button-response","trial_index":56,"time_elapsed":263114,"internal_node_id":"0.0-4.0-1.24","subject_id":"61607b22aede63bd986af738","study_id":"60edd13110225f80f9f3709b","session_id":"6196c1f6239a38ae3b688523","condition":"contingent","relevant_dimensions":["wings","legs"],"bee_group":{"antennae":"X","wings":"2","pattern":"X","legs":"F"},"bonus":1.0000000000000009},{"rt":823,"stimulus":"bees-with-color/bee-B2SF.svg","response":1,"trial_type":"image-button-response","trial_index":57,"time_elapsed":263939,"internal_node_id":"0.0-4.0-0.25","subject_id":"61607b22aede63bd986af738","study_id":"60edd13110225f80f9f3709b","session_id":"6196c1f6239a38ae3b688523","condition":"contingent","relevant_dimensions":["wings","legs"],"bee_group":{"antennae":"X","wings":"2","pattern":"X","legs":"F"},"action":"avoid","summary":"good-avoid","bonus":1.0000000000000009},{"rt":478,"stimulus":"\n                    <p><b>Action: <em>avoid</em></b></p>\n                    <p>This is the bee that you just saw.</p>\n                    <img src=\"bees-with-color/bee-B2SF.svg\" width=\"200\">\n                    <p><br>Your bonus pay is unchanged, and remains at $0.52.</p>\n            ","response":0,"trial_type":"html-button-response","trial_index":58,"time_elapsed":264418,"internal_node_id":"0.0-4.0-1.25","subject_id":"61607b22aede63bd986af738","study_id":"60edd13110225f80f9f3709b","session_id":"6196c1f6239a38ae3b688523","condition":"contingent","relevant_dimensions":["wings","legs"],"bee_group":{"antennae":"X","wings":"2","pattern":"X","legs":"F"},"bonus":1.0000000000000009},{"rt":680,"stimulus":"bees-with-color/bee-A1SM.svg","response":0,"trial_type":"image-button-response","trial_index":59,"time_elapsed":265100,"internal_node_id":"0.0-4.0-0.26","subject_id":"61607b22aede63bd986af738","study_id":"60edd13110225f80f9f3709b","session_id":"6196c1f6239a38ae3b688523","condition":"contingent","relevant_dimensions":["wings","legs"],"bee_group":{"antennae":"X","wings":"2","pattern":"X","legs":"F"},"action":"harvest","summary":"good-harvest","bonus":1.0000000000000009},{"rt":541,"stimulus":"\n                    <p><b>Action: <em>harvest</em></b></p>\n                    <p>This is the bee that you just saw.</p>\n                    <img src=\"bees-with-color/bee-A1SM.svg\" width=\"200\">\n                    <p><span class=\"greenText\"><b>Successful harvest!</b></span><br>Your pay has increased by $0.02. Your bonus pay is now $0.54.</p>\n            ","response":0,"trial_type":"html-button-response","trial_index":60,"time_elapsed":265642,"internal_node_id":"0.0-4.0-1.26","subject_id":"61607b22aede63bd986af738","study_id":"60edd13110225f80f9f3709b","session_id":"6196c1f6239a38ae3b688523","condition":"contingent","relevant_dimensions":["wings","legs"],"bee_group":{"antennae":"X","wings":"2","pattern":"X","legs":"F"},"bonus":1.0000000000000009},{"rt":678,"stimulus":"bees-with-color/bee-A1SF.svg","response":0,"trial_type":"image-button-response","trial_index":61,"time_elapsed":266322,"internal_node_id":"0.0-4.0-0.27","subject_id":"61607b22aede63bd986af738","study_id":"60edd13110225f80f9f3709b","session_id":"6196c1f6239a38ae3b688523","condition":"contingent","relevant_dimensions":["wings","legs"],"bee_group":{"antennae":"X","wings":"2","pattern":"X","legs":"F"},"action":"harvest","summary":"good-harvest","bonus":1.0000000000000009},{"rt":734,"stimulus":"\n                    <p><b>Action: <em>harvest</em></b></p>\n                    <p>This is the bee that you just saw.</p>\n                    <img src=\"bees-with-color/bee-A1SF.svg\" width=\"200\">\n                    <p><span class=\"greenText\"><b>Successful harvest!</b></span><br>Your pay has increased by $0.02. Your bonus pay is now $0.56.</p>\n            ","response":0,"trial_type":"html-button-response","trial_index":62,"time_elapsed":267058,"internal_node_id":"0.0-4.0-1.27","subject_id":"61607b22aede63bd986af738","study_id":"60edd13110225f80f9f3709b","session_id":"6196c1f6239a38ae3b688523","condition":"contingent","relevant_dimensions":["wings","legs"],"bee_group":{"antennae":"X","wings":"2","pattern":"X","legs":"F"},"bonus":1.0000000000000009},{"rt":943,"stimulus":"bees-with-color/bee-A2SM.svg","response":1,"trial_type":"image-button-response","trial_index":63,"time_elapsed":268002,"internal_node_id":"0.0-4.0-0.28","subject_id":"61607b22aede63bd986af738","study_id":"60edd13110225f80f9f3709b","session_id":"6196c1f6239a38ae3b688523","condition":"contingent","relevant_dimensions":["wings","legs"],"bee_group":{"antennae":"X","wings":"2","pattern":"X","legs":"F"},"action":"avoid","summary":"bad-avoid","bonus":1.0000000000000009},{"rt":432,"stimulus":"\n                    <p><b>Action: <em>avoid</em></b></p>\n                    <p>This is the bee that you just saw.</p>\n                    <img src=\"bees-with-color/bee-A2SM.svg\" width=\"200\">\n                    <p><br>Your bonus pay is unchanged, and remains at $0.56.</p>\n            ","response":0,"trial_type":"html-button-response","trial_index":64,"time_elapsed":268434,"internal_node_id":"0.0-4.0-1.28","subject_id":"61607b22aede63bd986af738","study_id":"60edd13110225f80f9f3709b","session_id":"6196c1f6239a38ae3b688523","condition":"contingent","relevant_dimensions":["wings","legs"],"bee_group":{"antennae":"X","wings":"2","pattern":"X","legs":"F"},"bonus":1.0000000000000009},{"rt":599,"stimulus":"bees-with-color/bee-B2SM.svg","response":1,"trial_type":"image-button-response","trial_index":65,"time_elapsed":269034,"internal_node_id":"0.0-4.0-0.29","subject_id":"61607b22aede63bd986af738","study_id":"60edd13110225f80f9f3709b","session_id":"6196c1f6239a38ae3b688523","condition":"contingent","relevant_dimensions":["wings","legs"],"bee_group":{"antennae":"X","wings":"2","pattern":"X","legs":"F"},"action":"avoid","summary":"bad-avoid","bonus":1.0000000000000009},{"rt":528,"stimulus":"\n                    <p><b>Action: <em>avoid</em></b></p>\n                    <p>This is the bee that you just saw.</p>\n                    <img src=\"bees-with-color/bee-B2SM.svg\" width=\"200\">\n                    <p><br>Your bonus pay is unchanged, and remains at $0.56.</p>\n            ","response":0,"trial_type":"html-button-response","trial_index":66,"time_elapsed":269562,"internal_node_id":"0.0-4.0-1.29","subject_id":"61607b22aede63bd986af738","study_id":"60edd13110225f80f9f3709b","session_id":"6196c1f6239a38ae3b688523","condition":"contingent","relevant_dimensions":["wings","legs"],"bee_group":{"antennae":"X","wings":"2","pattern":"X","legs":"F"},"bonus":1.0000000000000009},{"rt":656,"stimulus":"bees-with-color/bee-A1DM.svg","response":0,"trial_type":"image-button-response","trial_index":67,"time_elapsed":270218,"internal_node_id":"0.0-4.0-0.30","subject_id":"61607b22aede63bd986af738","study_id":"60edd13110225f80f9f3709b","session_id":"6196c1f6239a38ae3b688523","condition":"contingent","relevant_dimensions":["wings","legs"],"bee_group":{"antennae":"X","wings":"2","pattern":"X","legs":"F"},"action":"harvest","summary":"good-harvest","bonus":1.0000000000000009},{"rt":503,"stimulus":"\n                    <p><b>Action: <em>harvest</em></b></p>\n                    <p>This is the bee that you just saw.</p>\n                    <img src=\"bees-with-color/bee-A1DM.svg\" width=\"200\">\n                    <p><span class=\"greenText\"><b>Successful harvest!</b></span><br>Your pay has increased by $0.02. Your bonus pay is now $0.58.</p>\n            ","response":0,"trial_type":"html-button-response","trial_index":68,"time_elapsed":270722,"internal_node_id":"0.0-4.0-1.30","subject_id":"61607b22aede63bd986af738","study_id":"60edd13110225f80f9f3709b","session_id":"6196c1f6239a38ae3b688523","condition":"contingent","relevant_dimensions":["wings","legs"],"bee_group":{"antennae":"X","wings":"2","pattern":"X","legs":"F"},"bonus":1.0000000000000009},{"rt":591,"stimulus":"bees-with-color/bee-B2DF.svg","response":1,"trial_type":"image-button-response","trial_index":69,"time_elapsed":271314,"internal_node_id":"0.0-4.0-0.31","subject_id":"61607b22aede63bd986af738","study_id":"60edd13110225f80f9f3709b","session_id":"6196c1f6239a38ae3b688523","condition":"contingent","relevant_dimensions":["wings","legs"],"bee_group":{"antennae":"X","wings":"2","pattern":"X","legs":"F"},"action":"avoid","summary":"good-avoid","bonus":1.0000000000000009},{"rt":550,"stimulus":"\n                    <p><b>Action: <em>avoid</em></b></p>\n                    <p>This is the bee that you just saw.</p>\n                    <img src=\"bees-with-color/bee-B2DF.svg\" width=\"200\">\n                    <p><br>Your bonus pay is unchanged, and remains at $0.58.</p>\n            ","response":0,"trial_type":"html-button-response","trial_index":70,"time_elapsed":271866,"internal_node_id":"0.0-4.0-1.31","subject_id":"61607b22aede63bd986af738","study_id":"60edd13110225f80f9f3709b","session_id":"6196c1f6239a38ae3b688523","condition":"contingent","relevant_dimensions":["wings","legs"],"bee_group":{"antennae":"X","wings":"2","pattern":"X","legs":"F"},"bonus":1.0000000000000009},{"rt":855,"stimulus":"bees-with-color/bee-A2DM.svg","response":1,"trial_type":"image-button-response","trial_index":71,"time_elapsed":272722,"internal_node_id":"0.0-4.0-0.32","subject_id":"61607b22aede63bd986af738","study_id":"60edd13110225f80f9f3709b","session_id":"6196c1f6239a38ae3b688523","condition":"contingent","relevant_dimensions":["wings","legs"],"bee_group":{"antennae":"X","wings":"2","pattern":"X","legs":"F"},"action":"avoid","summary":"bad-avoid","bonus":1.0000000000000009},{"rt":517,"stimulus":"\n                    <p><b>Action: <em>avoid</em></b></p>\n                    <p>This is the bee that you just saw.</p>\n                    <img src=\"bees-with-color/bee-A2DM.svg\" width=\"200\">\n                    <p><br>Your bonus pay is unchanged, and remains at $0.58.</p>\n            ","response":0,"trial_type":"html-button-response","trial_index":72,"time_elapsed":273242,"internal_node_id":"0.0-4.0-1.32","subject_id":"61607b22aede63bd986af738","study_id":"60edd13110225f80f9f3709b","session_id":"6196c1f6239a38ae3b688523","condition":"contingent","relevant_dimensions":["wings","legs"],"bee_group":{"antennae":"X","wings":"2","pattern":"X","legs":"F"},"bonus":1.0000000000000009},{"rt":607,"stimulus":"bees-with-color/bee-A2SM.svg","response":1,"trial_type":"image-button-response","trial_index":73,"time_elapsed":273850,"internal_node_id":"0.0-4.0-0.33","subject_id":"61607b22aede63bd986af738","study_id":"60edd13110225f80f9f3709b","session_id":"6196c1f6239a38ae3b688523","condition":"contingent","relevant_dimensions":["wings","legs"],"bee_group":{"antennae":"X","wings":"2","pattern":"X","legs":"F"},"action":"avoid","summary":"bad-avoid","bonus":1.0000000000000009},{"rt":519,"stimulus":"\n                    <p><b>Action: <em>avoid</em></b></p>\n                    <p>This is the bee that you just saw.</p>\n                    <img src=\"bees-with-color/bee-A2SM.svg\" width=\"200\">\n                    <p><br>Your bonus pay is unchanged, and remains at $0.58.</p>\n            ","response":0,"trial_type":"html-button-response","trial_index":74,"time_elapsed":274371,"internal_node_id":"0.0-4.0-1.33","subject_id":"61607b22aede63bd986af738","study_id":"60edd13110225f80f9f3709b","session_id":"6196c1f6239a38ae3b688523","condition":"contingent","relevant_dimensions":["wings","legs"],"bee_group":{"antennae":"X","wings":"2","pattern":"X","legs":"F"},"bonus":1.0000000000000009},{"rt":583,"stimulus":"bees-with-color/bee-B1SF.svg","response":0,"trial_type":"image-button-response","trial_index":75,"time_elapsed":274954,"internal_node_id":"0.0-4.0-0.34","subject_id":"61607b22aede63bd986af738","study_id":"60edd13110225f80f9f3709b","session_id":"6196c1f6239a38ae3b688523","condition":"contingent","relevant_dimensions":["wings","legs"],"bee_group":{"antennae":"X","wings":"2","pattern":"X","legs":"F"},"action":"harvest","summary":"good-harvest","bonus":1.0000000000000009},{"rt":559,"stimulus":"\n                    <p><b>Action: <em>harvest</em></b></p>\n                    <p>This is the bee that you just saw.</p>\n                    <img src=\"bees-with-color/bee-B1SF.svg\" width=\"200\">\n                    <p><span class=\"greenText\"><b>Successful harvest!</b></span><br>Your pay has increased by $0.02. Your bonus pay is now $0.60.</p>\n            ","response":0,"trial_type":"html-button-response","trial_index":76,"time_elapsed":275514,"internal_node_id":"0.0-4.0-1.34","subject_id":"61607b22aede63bd986af738","study_id":"60edd13110225f80f9f3709b","session_id":"6196c1f6239a38ae3b688523","condition":"contingent","relevant_dimensions":["wings","legs"],"bee_group":{"antennae":"X","wings":"2","pattern":"X","legs":"F"},"bonus":1.0000000000000009},{"rt":615,"stimulus":"bees-with-color/bee-B2DM.svg","response":1,"trial_type":"image-button-response","trial_index":77,"time_elapsed":276130,"internal_node_id":"0.0-4.0-0.35","subject_id":"61607b22aede63bd986af738","study_id":"60edd13110225f80f9f3709b","session_id":"6196c1f6239a38ae3b688523","condition":"contingent","relevant_dimensions":["wings","legs"],"bee_group":{"antennae":"X","wings":"2","pattern":"X","legs":"F"},"action":"avoid","summary":"bad-avoid","bonus":1.0000000000000009},{"rt":560,"stimulus":"\n                    <p><b>Action: <em>avoid</em></b></p>\n                    <p>This is the bee that you just saw.</p>\n                    <img src=\"bees-with-color/bee-B2DM.svg\" width=\"200\">\n                    <p><br>Your bonus pay is unchanged, and remains at $0.60.</p>\n            ","response":0,"trial_type":"html-button-response","trial_index":78,"time_elapsed":276690,"internal_node_id":"0.0-4.0-1.35","subject_id":"61607b22aede63bd986af738","study_id":"60edd13110225f80f9f3709b","session_id":"6196c1f6239a38ae3b688523","condition":"contingent","relevant_dimensions":["wings","legs"],"bee_group":{"antennae":"X","wings":"2","pattern":"X","legs":"F"},"bonus":1.0000000000000009},{"rt":568,"stimulus":"bees-with-color/bee-B2SF.svg","response":1,"trial_type":"image-button-response","trial_index":79,"time_elapsed":277259,"internal_node_id":"0.0-4.0-0.36","subject_id":"61607b22aede63bd986af738","study_id":"60edd13110225f80f9f3709b","session_id":"6196c1f6239a38ae3b688523","condition":"contingent","relevant_dimensions":["wings","legs"],"bee_group":{"antennae":"X","wings":"2","pattern":"X","legs":"F"},"action":"avoid","summary":"good-avoid","bonus":1.0000000000000009},{"rt":543,"stimulus":"\n                    <p><b>Action: <em>avoid</em></b></p>\n                    <p>This is the bee that you just saw.</p>\n                    <img src=\"bees-with-color/bee-B2SF.svg\" width=\"200\">\n                    <p><br>Your bonus pay is unchanged, and remains at $0.60.</p>\n            ","response":0,"trial_type":"html-button-response","trial_index":80,"time_elapsed":277802,"internal_node_id":"0.0-4.0-1.36","subject_id":"61607b22aede63bd986af738","study_id":"60edd13110225f80f9f3709b","session_id":"6196c1f6239a38ae3b688523","condition":"contingent","relevant_dimensions":["wings","legs"],"bee_group":{"antennae":"X","wings":"2","pattern":"X","legs":"F"},"bonus":1.0000000000000009},{"rt":768,"stimulus":"bees-with-color/bee-A1SM.svg","response":0,"trial_type":"image-button-response","trial_index":81,"time_elapsed":278570,"internal_node_id":"0.0-4.0-0.37","subject_id":"61607b22aede63bd986af738","study_id":"60edd13110225f80f9f3709b","session_id":"6196c1f6239a38ae3b688523","condition":"contingent","relevant_dimensions":["wings","legs"],"bee_group":{"antennae":"X","wings":"2","pattern":"X","legs":"F"},"action":"harvest","summary":"good-harvest","bonus":1.0000000000000009},{"rt":469,"stimulus":"\n                    <p><b>Action: <em>harvest</em></b></p>\n                    <p>This is the bee that you just saw.</p>\n                    <img src=\"bees-with-color/bee-A1SM.svg\" width=\"200\">\n                    <p><span class=\"greenText\"><b>Successful harvest!</b></span><br>Your pay has increased by $0.02. Your bonus pay is now $0.62.</p>\n            ","response":0,"trial_type":"html-button-response","trial_index":82,"time_elapsed":279043,"internal_node_id":"0.0-4.0-1.37","subject_id":"61607b22aede63bd986af738","study_id":"60edd13110225f80f9f3709b","session_id":"6196c1f6239a38ae3b688523","condition":"contingent","relevant_dimensions":["wings","legs"],"bee_group":{"antennae":"X","wings":"2","pattern":"X","legs":"F"},"bonus":1.0000000000000009},{"rt":967,"stimulus":"bees-with-color/bee-B2DF.svg","response":1,"trial_type":"image-button-response","trial_index":83,"time_elapsed":280010,"internal_node_id":"0.0-4.0-0.38","subject_id":"61607b22aede63bd986af738","study_id":"60edd13110225f80f9f3709b","session_id":"6196c1f6239a38ae3b688523","condition":"contingent","relevant_dimensions":["wings","legs"],"bee_group":{"antennae":"X","wings":"2","pattern":"X","legs":"F"},"action":"avoid","summary":"good-avoid","bonus":1.0000000000000009},{"rt":735,"stimulus":"\n                    <p><b>Action: <em>avoid</em></b></p>\n                    <p>This is the bee that you just saw.</p>\n                    <img src=\"bees-with-color/bee-B2DF.svg\" width=\"200\">\n                    <p><br>Your bonus pay is unchanged, and remains at $0.62.</p>\n            ","response":0,"trial_type":"html-button-response","trial_index":84,"time_elapsed":280746,"internal_node_id":"0.0-4.0-1.38","subject_id":"61607b22aede63bd986af738","study_id":"60edd13110225f80f9f3709b","session_id":"6196c1f6239a38ae3b688523","condition":"contingent","relevant_dimensions":["wings","legs"],"bee_group":{"antennae":"X","wings":"2","pattern":"X","legs":"F"},"bonus":1.0000000000000009},{"rt":936,"stimulus":"bees-with-color/bee-A1DM.svg","response":0,"trial_type":"image-button-response","trial_index":85,"time_elapsed":281683,"internal_node_id":"0.0-4.0-0.39","subject_id":"61607b22aede63bd986af738","study_id":"60edd13110225f80f9f3709b","session_id":"6196c1f6239a38ae3b688523","condition":"contingent","relevant_dimensions":["wings","legs"],"bee_group":{"antennae":"X","wings":"2","pattern":"X","legs":"F"},"action":"harvest","summary":"good-harvest","bonus":1.0000000000000009},{"rt":375,"stimulus":"\n                    <p><b>Action: <em>harvest</em></b></p>\n                    <p>This is the bee that you just saw.</p>\n                    <img src=\"bees-with-color/bee-A1DM.svg\" width=\"200\">\n                    <p><span class=\"greenText\"><b>Successful harvest!</b></span><br>Your pay has increased by $0.02. Your bonus pay is now $0.64.</p>\n            ","response":0,"trial_type":"html-button-response","trial_index":86,"time_elapsed":282059,"internal_node_id":"0.0-4.0-1.39","subject_id":"61607b22aede63bd986af738","study_id":"60edd13110225f80f9f3709b","session_id":"6196c1f6239a38ae3b688523","condition":"contingent","relevant_dimensions":["wings","legs"],"bee_group":{"antennae":"X","wings":"2","pattern":"X","legs":"F"},"bonus":1.0000000000000009},{"rt":774,"stimulus":"bees-with-color/bee-B1DF.svg","response":0,"trial_type":"image-button-response","trial_index":87,"time_elapsed":282834,"internal_node_id":"0.0-4.0-0.40","subject_id":"61607b22aede63bd986af738","study_id":"60edd13110225f80f9f3709b","session_id":"6196c1f6239a38ae3b688523","condition":"contingent","relevant_dimensions":["wings","legs"],"bee_group":{"antennae":"X","wings":"2","pattern":"X","legs":"F"},"action":"harvest","summary":"good-harvest","bonus":1.0000000000000009},{"rt":454,"stimulus":"\n                    <p><b>Action: <em>harvest</em></b></p>\n                    <p>This is the bee that you just saw.</p>\n                    <img src=\"bees-with-color/bee-B1DF.svg\" width=\"200\">\n                    <p><span class=\"greenText\"><b>Successful harvest!</b></span><br>Your pay has increased by $0.02. Your bonus pay is now $0.66.</p>\n            ","response":0,"trial_type":"html-button-response","trial_index":88,"time_elapsed":283290,"internal_node_id":"0.0-4.0-1.40","subject_id":"61607b22aede63bd986af738","study_id":"60edd13110225f80f9f3709b","session_id":"6196c1f6239a38ae3b688523","condition":"contingent","relevant_dimensions":["wings","legs"],"bee_group":{"antennae":"X","wings":"2","pattern":"X","legs":"F"},"bonus":1.0000000000000009},{"rt":608,"stimulus":"bees-with-color/bee-A2SF.svg","response":1,"trial_type":"image-button-response","trial_index":89,"time_elapsed":283898,"internal_node_id":"0.0-4.0-0.41","subject_id":"61607b22aede63bd986af738","study_id":"60edd13110225f80f9f3709b","session_id":"6196c1f6239a38ae3b688523","condition":"contingent","relevant_dimensions":["wings","legs"],"bee_group":{"antennae":"X","wings":"2","pattern":"X","legs":"F"},"action":"avoid","summary":"good-avoid","bonus":1.0000000000000009},{"rt":486,"stimulus":"\n                    <p><b>Action: <em>avoid</em></b></p>\n                    <p>This is the bee that you just saw.</p>\n                    <img src=\"bees-with-color/bee-A2SF.svg\" width=\"200\">\n                    <p><br>Your bonus pay is unchanged, and remains at $0.66.</p>\n            ","response":0,"trial_type":"html-button-response","trial_index":90,"time_elapsed":284386,"internal_node_id":"0.0-4.0-1.41","subject_id":"61607b22aede63bd986af738","study_id":"60edd13110225f80f9f3709b","session_id":"6196c1f6239a38ae3b688523","condition":"contingent","relevant_dimensions":["wings","legs"],"bee_group":{"antennae":"X","wings":"2","pattern":"X","legs":"F"},"bonus":1.0000000000000009},{"rt":910,"stimulus":"bees-with-color/bee-B2SM.svg","response":1,"trial_type":"image-button-response","trial_index":91,"time_elapsed":285298,"internal_node_id":"0.0-4.0-0.42","subject_id":"61607b22aede63bd986af738","study_id":"60edd13110225f80f9f3709b","session_id":"6196c1f6239a38ae3b688523","condition":"contingent","relevant_dimensions":["wings","legs"],"bee_group":{"antennae":"X","wings":"2","pattern":"X","legs":"F"},"action":"avoid","summary":"bad-avoid","bonus":1.0000000000000009},{"rt":752,"stimulus":"\n                    <p><b>Action: <em>avoid</em></b></p>\n                    <p>This is the bee that you just saw.</p>\n                    <img src=\"bees-with-color/bee-B2SM.svg\" width=\"200\">\n                    <p><br>Your bonus pay is unchanged, and remains at $0.66.</p>\n            ","response":0,"trial_type":"html-button-response","trial_index":92,"time_elapsed":286051,"internal_node_id":"0.0-4.0-1.42","subject_id":"61607b22aede63bd986af738","study_id":"60edd13110225f80f9f3709b","session_id":"6196c1f6239a38ae3b688523","condition":"contingent","relevant_dimensions":["wings","legs"],"bee_group":{"antennae":"X","wings":"2","pattern":"X","legs":"F"},"bonus":1.0000000000000009},{"rt":743,"stimulus":"bees-with-color/bee-A1DF.svg","response":0,"trial_type":"image-button-response","trial_index":93,"time_elapsed":286794,"internal_node_id":"0.0-4.0-0.43","subject_id":"61607b22aede63bd986af738","study_id":"60edd13110225f80f9f3709b","session_id":"6196c1f6239a38ae3b688523","condition":"contingent","relevant_dimensions":["wings","legs"],"bee_group":{"antennae":"X","wings":"2","pattern":"X","legs":"F"},"action":"harvest","summary":"good-harvest","bonus":1.0000000000000009},{"rt":503,"stimulus":"\n                    <p><b>Action: <em>harvest</em></b></p>\n                    <p>This is the bee that you just saw.</p>\n                    <img src=\"bees-with-color/bee-A1DF.svg\" width=\"200\">\n                    <p><span class=\"greenText\"><b>Successful harvest!</b></span><br>Your pay has increased by $0.02. Your bonus pay is now $0.68.</p>\n            ","response":0,"trial_type":"html-button-response","trial_index":94,"time_elapsed":287298,"internal_node_id":"0.0-4.0-1.43","subject_id":"61607b22aede63bd986af738","study_id":"60edd13110225f80f9f3709b","session_id":"6196c1f6239a38ae3b688523","condition":"contingent","relevant_dimensions":["wings","legs"],"bee_group":{"antennae":"X","wings":"2","pattern":"X","legs":"F"},"bonus":1.0000000000000009},{"rt":543,"stimulus":"bees-with-color/bee-A2DF.svg","response":1,"trial_type":"image-button-response","trial_index":95,"time_elapsed":287842,"internal_node_id":"0.0-4.0-0.44","subject_id":"61607b22aede63bd986af738","study_id":"60edd13110225f80f9f3709b","session_id":"6196c1f6239a38ae3b688523","condition":"contingent","relevant_dimensions":["wings","legs"],"bee_group":{"antennae":"X","wings":"2","pattern":"X","legs":"F"},"action":"avoid","summary":"good-avoid","bonus":1.0000000000000009},{"rt":478,"stimulus":"\n                    <p><b>Action: <em>avoid</em></b></p>\n                    <p>This is the bee that you just saw.</p>\n                    <img src=\"bees-with-color/bee-A2DF.svg\" width=\"200\">\n                    <p><br>Your bonus pay is unchanged, and remains at $0.68.</p>\n            ","response":0,"trial_type":"html-button-response","trial_index":96,"time_elapsed":288322,"internal_node_id":"0.0-4.0-1.44","subject_id":"61607b22aede63bd986af738","study_id":"60edd13110225f80f9f3709b","session_id":"6196c1f6239a38ae3b688523","condition":"contingent","relevant_dimensions":["wings","legs"],"bee_group":{"antennae":"X","wings":"2","pattern":"X","legs":"F"},"bonus":1.0000000000000009},{"rt":815,"stimulus":"bees-with-color/bee-B1SM.svg","response":0,"trial_type":"image-button-response","trial_index":97,"time_elapsed":289138,"internal_node_id":"0.0-4.0-0.45","subject_id":"61607b22aede63bd986af738","study_id":"60edd13110225f80f9f3709b","session_id":"6196c1f6239a38ae3b688523","condition":"contingent","relevant_dimensions":["wings","legs"],"bee_group":{"antennae":"X","wings":"2","pattern":"X","legs":"F"},"action":"harvest","summary":"good-harvest","bonus":1.0000000000000009},{"rt":623,"stimulus":"\n                    <p><b>Action: <em>harvest</em></b></p>\n                    <p>This is the bee that you just saw.</p>\n                    <img src=\"bees-with-color/bee-B1SM.svg\" width=\"200\">\n                    <p><span class=\"greenText\"><b>Successful harvest!</b></span><br>Your pay has increased by $0.02. Your bonus pay is now $0.70.</p>\n            ","response":0,"trial_type":"html-button-response","trial_index":98,"time_elapsed":289762,"internal_node_id":"0.0-4.0-1.45","subject_id":"61607b22aede63bd986af738","study_id":"60edd13110225f80f9f3709b","session_id":"6196c1f6239a38ae3b688523","condition":"contingent","relevant_dimensions":["wings","legs"],"bee_group":{"antennae":"X","wings":"2","pattern":"X","legs":"F"},"bonus":1.0000000000000009},{"rt":1264,"stimulus":"bees-with-color/bee-A1SF.svg","response":0,"trial_type":"image-button-response","trial_index":99,"time_elapsed":291027,"internal_node_id":"0.0-4.0-0.46","subject_id":"61607b22aede63bd986af738","study_id":"60edd13110225f80f9f3709b","session_id":"6196c1f6239a38ae3b688523","condition":"contingent","relevant_dimensions":["wings","legs"],"bee_group":{"antennae":"X","wings":"2","pattern":"X","legs":"F"},"action":"harvest","summary":"good-harvest","bonus":1.0000000000000009},{"rt":424,"stimulus":"\n                    <p><b>Action: <em>harvest</em></b></p>\n                    <p>This is the bee that you just saw.</p>\n                    <img src=\"bees-with-color/bee-A1SF.svg\" width=\"200\">\n                    <p><span class=\"greenText\"><b>Successful harvest!</b></span><br>Your pay has increased by $0.02. Your bonus pay is now $0.72.</p>\n            ","response":0,"trial_type":"html-button-response","trial_index":100,"time_elapsed":291450,"internal_node_id":"0.0-4.0-1.46","subject_id":"61607b22aede63bd986af738","study_id":"60edd13110225f80f9f3709b","session_id":"6196c1f6239a38ae3b688523","condition":"contingent","relevant_dimensions":["wings","legs"],"bee_group":{"antennae":"X","wings":"2","pattern":"X","legs":"F"},"bonus":1.0000000000000009},{"rt":614,"stimulus":"bees-with-color/bee-B1DM.svg","response":0,"trial_type":"image-button-response","trial_index":101,"time_elapsed":292066,"internal_node_id":"0.0-4.0-0.47","subject_id":"61607b22aede63bd986af738","study_id":"60edd13110225f80f9f3709b","session_id":"6196c1f6239a38ae3b688523","condition":"contingent","relevant_dimensions":["wings","legs"],"bee_group":{"antennae":"X","wings":"2","pattern":"X","legs":"F"},"action":"harvest","summary":"good-harvest","bonus":1.0000000000000009},{"rt":448,"stimulus":"\n                    <p><b>Action: <em>harvest</em></b></p>\n                    <p>This is the bee that you just saw.</p>\n                    <img src=\"bees-with-color/bee-B1DM.svg\" width=\"200\">\n                    <p><span class=\"greenText\"><b>Successful harvest!</b></span><br>Your pay has increased by $0.02. Your bonus pay is now $0.74.</p>\n            ","response":0,"trial_type":"html-button-response","trial_index":102,"time_elapsed":292514,"internal_node_id":"0.0-4.0-1.47","subject_id":"61607b22aede63bd986af738","study_id":"60edd13110225f80f9f3709b","session_id":"6196c1f6239a38ae3b688523","condition":"contingent","relevant_dimensions":["wings","legs"],"bee_group":{"antennae":"X","wings":"2","pattern":"X","legs":"F"},"bonus":1.0000000000000009},{"rt":550,"stimulus":"bees-with-color/bee-A2SF.svg","response":1,"trial_type":"image-button-response","trial_index":103,"time_elapsed":293066,"internal_node_id":"0.0-4.0-0.48","subject_id":"61607b22aede63bd986af738","study_id":"60edd13110225f80f9f3709b","session_id":"6196c1f6239a38ae3b688523","condition":"contingent","relevant_dimensions":["wings","legs"],"bee_group":{"antennae":"X","wings":"2","pattern":"X","legs":"F"},"action":"avoid","summary":"good-avoid","bonus":1.0000000000000009},{"rt":423,"stimulus":"\n                    <p><b>Action: <em>avoid</em></b></p>\n                    <p>This is the bee that you just saw.</p>\n                    <img src=\"bees-with-color/bee-A2SF.svg\" width=\"200\">\n                    <p><br>Your bonus pay is unchanged, and remains at $0.74.</p>\n            ","response":0,"trial_type":"html-button-response","trial_index":104,"time_elapsed":293490,"internal_node_id":"0.0-4.0-1.48","subject_id":"61607b22aede63bd986af738","study_id":"60edd13110225f80f9f3709b","session_id":"6196c1f6239a38ae3b688523","condition":"contingent","relevant_dimensions":["wings","legs"],"bee_group":{"antennae":"X","wings":"2","pattern":"X","legs":"F"},"bonus":1.0000000000000009},{"rt":4414,"stimulus":"bees-with-color/bee-B1SM.svg","response":0,"trial_type":"image-button-response","trial_index":105,"time_elapsed":297906,"internal_node_id":"0.0-4.0-0.49","subject_id":"61607b22aede63bd986af738","study_id":"60edd13110225f80f9f3709b","session_id":"6196c1f6239a38ae3b688523","condition":"contingent","relevant_dimensions":["wings","legs"],"bee_group":{"antennae":"X","wings":"2","pattern":"X","legs":"F"},"action":"harvest","summary":"good-harvest","bonus":1.0000000000000009},{"rt":511,"stimulus":"\n                    <p><b>Action: <em>harvest</em></b></p>\n                    <p>This is the bee that you just saw.</p>\n                    <img src=\"bees-with-color/bee-B1SM.svg\" width=\"200\">\n                    <p><span class=\"greenText\"><b>Successful harvest!</b></span><br>Your pay has increased by $0.02. Your bonus pay is now $0.76.</p>\n            ","response":0,"trial_type":"html-button-response","trial_index":106,"time_elapsed":298419,"internal_node_id":"0.0-4.0-1.49","subject_id":"61607b22aede63bd986af738","study_id":"60edd13110225f80f9f3709b","session_id":"6196c1f6239a38ae3b688523","condition":"contingent","relevant_dimensions":["wings","legs"],"bee_group":{"antennae":"X","wings":"2","pattern":"X","legs":"F"},"bonus":1.0000000000000009},{"rt":535,"stimulus":"bees-with-color/bee-A1SF.svg","response":0,"trial_type":"image-button-response","trial_index":107,"time_elapsed":298954,"internal_node_id":"0.0-4.0-0.50","subject_id":"61607b22aede63bd986af738","study_id":"60edd13110225f80f9f3709b","session_id":"6196c1f6239a38ae3b688523","condition":"contingent","relevant_dimensions":["wings","legs"],"bee_group":{"antennae":"X","wings":"2","pattern":"X","legs":"F"},"action":"harvest","summary":"good-harvest","bonus":1.0000000000000009},{"rt":376,"stimulus":"\n                    <p><b>Action: <em>harvest</em></b></p>\n                    <p>This is the bee that you just saw.</p>\n                    <img src=\"bees-with-color/bee-A1SF.svg\" width=\"200\">\n                    <p><span class=\"greenText\"><b>Successful harvest!</b></span><br>Your pay has increased by $0.02. Your bonus pay is now $0.78.</p>\n            ","response":0,"trial_type":"html-button-response","trial_index":108,"time_elapsed":299330,"internal_node_id":"0.0-4.0-1.50","subject_id":"61607b22aede63bd986af738","study_id":"60edd13110225f80f9f3709b","session_id":"6196c1f6239a38ae3b688523","condition":"contingent","relevant_dimensions":["wings","legs"],"bee_group":{"antennae":"X","wings":"2","pattern":"X","legs":"F"},"bonus":1.0000000000000009},{"rt":767,"stimulus":"bees-with-color/bee-B2DM.svg","response":1,"trial_type":"image-button-response","trial_index":109,"time_elapsed":300098,"internal_node_id":"0.0-4.0-0.51","subject_id":"61607b22aede63bd986af738","study_id":"60edd13110225f80f9f3709b","session_id":"6196c1f6239a38ae3b688523","condition":"contingent","relevant_dimensions":["wings","legs"],"bee_group":{"antennae":"X","wings":"2","pattern":"X","legs":"F"},"action":"avoid","summary":"bad-avoid","bonus":1.0000000000000009},{"rt":414,"stimulus":"\n                    <p><b>Action: <em>avoid</em></b></p>\n                    <p>This is the bee that you just saw.</p>\n                    <img src=\"bees-with-color/bee-B2DM.svg\" width=\"200\">\n                    <p><br>Your bonus pay is unchanged, and remains at $0.78.</p>\n            ","response":0,"trial_type":"html-button-response","trial_index":110,"time_elapsed":300514,"internal_node_id":"0.0-4.0-1.51","subject_id":"61607b22aede63bd986af738","study_id":"60edd13110225f80f9f3709b","session_id":"6196c1f6239a38ae3b688523","condition":"contingent","relevant_dimensions":["wings","legs"],"bee_group":{"antennae":"X","wings":"2","pattern":"X","legs":"F"},"bonus":1.0000000000000009},{"rt":976,"stimulus":"bees-with-color/bee-B2DF.svg","response":1,"trial_type":"image-button-response","trial_index":111,"time_elapsed":301490,"internal_node_id":"0.0-4.0-0.52","subject_id":"61607b22aede63bd986af738","study_id":"60edd13110225f80f9f3709b","session_id":"6196c1f6239a38ae3b688523","condition":"contingent","relevant_dimensions":["wings","legs"],"bee_group":{"antennae":"X","wings":"2","pattern":"X","legs":"F"},"action":"avoid","summary":"good-avoid","bonus":1.0000000000000009},{"rt":408,"stimulus":"\n                    <p><b>Action: <em>avoid</em></b></p>\n                    <p>This is the bee that you just saw.</p>\n                    <img src=\"bees-with-color/bee-B2DF.svg\" width=\"200\">\n                    <p><br>Your bonus pay is unchanged, and remains at $0.78.</p>\n            ","response":0,"trial_type":"html-button-response","trial_index":112,"time_elapsed":301898,"internal_node_id":"0.0-4.0-1.52","subject_id":"61607b22aede63bd986af738","study_id":"60edd13110225f80f9f3709b","session_id":"6196c1f6239a38ae3b688523","condition":"contingent","relevant_dimensions":["wings","legs"],"bee_group":{"antennae":"X","wings":"2","pattern":"X","legs":"F"},"bonus":1.0000000000000009},{"rt":639,"stimulus":"bees-with-color/bee-B1DF.svg","response":0,"trial_type":"image-button-response","trial_index":113,"time_elapsed":302538,"internal_node_id":"0.0-4.0-0.53","subject_id":"61607b22aede63bd986af738","study_id":"60edd13110225f80f9f3709b","session_id":"6196c1f6239a38ae3b688523","condition":"contingent","relevant_dimensions":["wings","legs"],"bee_group":{"antennae":"X","wings":"2","pattern":"X","legs":"F"},"action":"harvest","summary":"good-harvest","bonus":1.0000000000000009},{"rt":550,"stimulus":"\n                    <p><b>Action: <em>harvest</em></b></p>\n                    <p>This is the bee that you just saw.</p>\n                    <img src=\"bees-with-color/bee-B1DF.svg\" width=\"200\">\n                    <p><span class=\"greenText\"><b>Successful harvest!</b></span><br>Your pay has increased by $0.02. Your bonus pay is now $0.80.</p>\n            ","response":0,"trial_type":"html-button-response","trial_index":114,"time_elapsed":303090,"internal_node_id":"0.0-4.0-1.53","subject_id":"61607b22aede63bd986af738","study_id":"60edd13110225f80f9f3709b","session_id":"6196c1f6239a38ae3b688523","condition":"contingent","relevant_dimensions":["wings","legs"],"bee_group":{"antennae":"X","wings":"2","pattern":"X","legs":"F"},"bonus":1.0000000000000009},{"rt":1144,"stimulus":"bees-with-color/bee-A1DM.svg","response":0,"trial_type":"image-button-response","trial_index":115,"time_elapsed":304235,"internal_node_id":"0.0-4.0-0.54","subject_id":"61607b22aede63bd986af738","study_id":"60edd13110225f80f9f3709b","session_id":"6196c1f6239a38ae3b688523","condition":"contingent","relevant_dimensions":["wings","legs"],"bee_group":{"antennae":"X","wings":"2","pattern":"X","legs":"F"},"action":"harvest","summary":"good-harvest","bonus":1.0000000000000009},{"rt":503,"stimulus":"\n                    <p><b>Action: <em>harvest</em></b></p>\n                    <p>This is the bee that you just saw.</p>\n                    <img src=\"bees-with-color/bee-A1DM.svg\" width=\"200\">\n                    <p><span class=\"greenText\"><b>Successful harvest!</b></span><br>Your pay has increased by $0.02. Your bonus pay is now $0.82.</p>\n            ","response":0,"trial_type":"html-button-response","trial_index":116,"time_elapsed":304739,"internal_node_id":"0.0-4.0-1.54","subject_id":"61607b22aede63bd986af738","study_id":"60edd13110225f80f9f3709b","session_id":"6196c1f6239a38ae3b688523","condition":"contingent","relevant_dimensions":["wings","legs"],"bee_group":{"antennae":"X","wings":"2","pattern":"X","legs":"F"},"bonus":1.0000000000000009},{"rt":678,"stimulus":"bees-with-color/bee-B2SM.svg","response":1,"trial_type":"image-button-response","trial_index":117,"time_elapsed":305418,"internal_node_id":"0.0-4.0-0.55","subject_id":"61607b22aede63bd986af738","study_id":"60edd13110225f80f9f3709b","session_id":"6196c1f6239a38ae3b688523","condition":"contingent","relevant_dimensions":["wings","legs"],"bee_group":{"antennae":"X","wings":"2","pattern":"X","legs":"F"},"action":"avoid","summary":"bad-avoid","bonus":1.0000000000000009},{"rt":1094,"stimulus":"\n                    <p><b>Action: <em>avoid</em></b></p>\n                    <p>This is the bee that you just saw.</p>\n                    <img src=\"bees-with-color/bee-B2SM.svg\" width=\"200\">\n                    <p><br>Your bonus pay is unchanged, and remains at $0.82.</p>\n            ","response":0,"trial_type":"html-button-response","trial_index":118,"time_elapsed":306515,"internal_node_id":"0.0-4.0-1.55","subject_id":"61607b22aede63bd986af738","study_id":"60edd13110225f80f9f3709b","session_id":"6196c1f6239a38ae3b688523","condition":"contingent","relevant_dimensions":["wings","legs"],"bee_group":{"antennae":"X","wings":"2","pattern":"X","legs":"F"},"bonus":1.0000000000000009},{"rt":893,"stimulus":"bees-with-color/bee-B1SF.svg","response":0,"trial_type":"image-button-response","trial_index":119,"time_elapsed":307411,"internal_node_id":"0.0-4.0-0.56","subject_id":"61607b22aede63bd986af738","study_id":"60edd13110225f80f9f3709b","session_id":"6196c1f6239a38ae3b688523","condition":"contingent","relevant_dimensions":["wings","legs"],"bee_group":{"antennae":"X","wings":"2","pattern":"X","legs":"F"},"action":"harvest","summary":"good-harvest","bonus":1.0000000000000009},{"rt":878,"stimulus":"\n                    <p><b>Action: <em>harvest</em></b></p>\n                    <p>This is the bee that you just saw.</p>\n                    <img src=\"bees-with-color/bee-B1SF.svg\" width=\"200\">\n                    <p><span class=\"greenText\"><b>Successful harvest!</b></span><br>Your pay has increased by $0.02. Your bonus pay is now $0.84.</p>\n            ","response":0,"trial_type":"html-button-response","trial_index":120,"time_elapsed":308290,"internal_node_id":"0.0-4.0-1.56","subject_id":"61607b22aede63bd986af738","study_id":"60edd13110225f80f9f3709b","session_id":"6196c1f6239a38ae3b688523","condition":"contingent","relevant_dimensions":["wings","legs"],"bee_group":{"antennae":"X","wings":"2","pattern":"X","legs":"F"},"bonus":1.0000000000000009},{"rt":807,"stimulus":"bees-with-color/bee-B2SF.svg","response":1,"trial_type":"image-button-response","trial_index":121,"time_elapsed":309098,"internal_node_id":"0.0-4.0-0.57","subject_id":"61607b22aede63bd986af738","study_id":"60edd13110225f80f9f3709b","session_id":"6196c1f6239a38ae3b688523","condition":"contingent","relevant_dimensions":["wings","legs"],"bee_group":{"antennae":"X","wings":"2","pattern":"X","legs":"F"},"action":"avoid","summary":"good-avoid","bonus":1.0000000000000009},{"rt":391,"stimulus":"\n                    <p><b>Action: <em>avoid</em></b></p>\n                    <p>This is the bee that you just saw.</p>\n                    <img src=\"bees-with-color/bee-B2SF.svg\" width=\"200\">\n                    <p><br>Your bonus pay is unchanged, and remains at $0.84.</p>\n            ","response":0,"trial_type":"html-button-response","trial_index":122,"time_elapsed":309490,"internal_node_id":"0.0-4.0-1.57","subject_id":"61607b22aede63bd986af738","study_id":"60edd13110225f80f9f3709b","session_id":"6196c1f6239a38ae3b688523","condition":"contingent","relevant_dimensions":["wings","legs"],"bee_group":{"antennae":"X","wings":"2","pattern":"X","legs":"F"},"bonus":1.0000000000000009},{"rt":743,"stimulus":"bees-with-color/bee-A2DM.svg","response":1,"trial_type":"image-button-response","trial_index":123,"time_elapsed":310234,"internal_node_id":"0.0-4.0-0.58","subject_id":"61607b22aede63bd986af738","study_id":"60edd13110225f80f9f3709b","session_id":"6196c1f6239a38ae3b688523","condition":"contingent","relevant_dimensions":["wings","legs"],"bee_group":{"antennae":"X","wings":"2","pattern":"X","legs":"F"},"action":"avoid","summary":"bad-avoid","bonus":1.0000000000000009},{"rt":454,"stimulus":"\n                    <p><b>Action: <em>avoid</em></b></p>\n                    <p>This is the bee that you just saw.</p>\n                    <img src=\"bees-with-color/bee-A2DM.svg\" width=\"200\">\n                    <p><br>Your bonus pay is unchanged, and remains at $0.84.</p>\n            ","response":0,"trial_type":"html-button-response","trial_index":124,"time_elapsed":310690,"internal_node_id":"0.0-4.0-1.58","subject_id":"61607b22aede63bd986af738","study_id":"60edd13110225f80f9f3709b","session_id":"6196c1f6239a38ae3b688523","condition":"contingent","relevant_dimensions":["wings","legs"],"bee_group":{"antennae":"X","wings":"2","pattern":"X","legs":"F"},"bonus":1.0000000000000009},{"rt":640,"stimulus":"bees-with-color/bee-A1DF.svg","response":0,"trial_type":"image-button-response","trial_index":125,"time_elapsed":311331,"internal_node_id":"0.0-4.0-0.59","subject_id":"61607b22aede63bd986af738","study_id":"60edd13110225f80f9f3709b","session_id":"6196c1f6239a38ae3b688523","condition":"contingent","relevant_dimensions":["wings","legs"],"bee_group":{"antennae":"X","wings":"2","pattern":"X","legs":"F"},"action":"harvest","summary":"good-harvest","bonus":1.0000000000000009},{"rt":1168,"stimulus":"\n                    <p><b>Action: <em>harvest</em></b></p>\n                    <p>This is the bee that you just saw.</p>\n                    <img src=\"bees-with-color/bee-A1DF.svg\" width=\"200\">\n                    <p><span class=\"greenText\"><b>Successful harvest!</b></span><br>Your pay has increased by $0.02. Your bonus pay is now $0.86.</p>\n            ","response":0,"trial_type":"html-button-response","trial_index":126,"time_elapsed":312498,"internal_node_id":"0.0-4.0-1.59","subject_id":"61607b22aede63bd986af738","study_id":"60edd13110225f80f9f3709b","session_id":"6196c1f6239a38ae3b688523","condition":"contingent","relevant_dimensions":["wings","legs"],"bee_group":{"antennae":"X","wings":"2","pattern":"X","legs":"F"},"bonus":1.0000000000000009},{"rt":670,"stimulus":"bees-with-color/bee-A1SM.svg","response":0,"trial_type":"image-button-response","trial_index":127,"time_elapsed":313170,"internal_node_id":"0.0-4.0-0.60","subject_id":"61607b22aede63bd986af738","study_id":"60edd13110225f80f9f3709b","session_id":"6196c1f6239a38ae3b688523","condition":"contingent","relevant_dimensions":["wings","legs"],"bee_group":{"antennae":"X","wings":"2","pattern":"X","legs":"F"},"action":"harvest","summary":"good-harvest","bonus":1.0000000000000009},{"rt":448,"stimulus":"\n                    <p><b>Action: <em>harvest</em></b></p>\n                    <p>This is the bee that you just saw.</p>\n                    <img src=\"bees-with-color/bee-A1SM.svg\" width=\"200\">\n                    <p><span class=\"greenText\"><b>Successful harvest!</b></span><br>Your pay has increased by $0.02. Your bonus pay is now $0.88.</p>\n            ","response":0,"trial_type":"html-button-response","trial_index":128,"time_elapsed":313618,"internal_node_id":"0.0-4.0-1.60","subject_id":"61607b22aede63bd986af738","study_id":"60edd13110225f80f9f3709b","session_id":"6196c1f6239a38ae3b688523","condition":"contingent","relevant_dimensions":["wings","legs"],"bee_group":{"antennae":"X","wings":"2","pattern":"X","legs":"F"},"bonus":1.0000000000000009},{"rt":670,"stimulus":"bees-with-color/bee-A2SM.svg","response":1,"trial_type":"image-button-response","trial_index":129,"time_elapsed":314290,"internal_node_id":"0.0-4.0-0.61","subject_id":"61607b22aede63bd986af738","study_id":"60edd13110225f80f9f3709b","session_id":"6196c1f6239a38ae3b688523","condition":"contingent","relevant_dimensions":["wings","legs"],"bee_group":{"antennae":"X","wings":"2","pattern":"X","legs":"F"},"action":"avoid","summary":"bad-avoid","bonus":1.0000000000000009},{"rt":1335,"stimulus":"\n                    <p><b>Action: <em>avoid</em></b></p>\n                    <p>This is the bee that you just saw.</p>\n                    <img src=\"bees-with-color/bee-A2SM.svg\" width=\"200\">\n                    <p><br>Your bonus pay is unchanged, and remains at $0.88.</p>\n            ","response":0,"trial_type":"html-button-response","trial_index":130,"time_elapsed":315626,"internal_node_id":"0.0-4.0-1.61","subject_id":"61607b22aede63bd986af738","study_id":"60edd13110225f80f9f3709b","session_id":"6196c1f6239a38ae3b688523","condition":"contingent","relevant_dimensions":["wings","legs"],"bee_group":{"antennae":"X","wings":"2","pattern":"X","legs":"F"},"bonus":1.0000000000000009},{"rt":951,"stimulus":"bees-with-color/bee-A2DF.svg","response":1,"trial_type":"image-button-response","trial_index":131,"time_elapsed":316579,"internal_node_id":"0.0-4.0-0.62","subject_id":"61607b22aede63bd986af738","study_id":"60edd13110225f80f9f3709b","session_id":"6196c1f6239a38ae3b688523","condition":"contingent","relevant_dimensions":["wings","legs"],"bee_group":{"antennae":"X","wings":"2","pattern":"X","legs":"F"},"action":"avoid","summary":"good-avoid","bonus":1.0000000000000009},{"rt":725,"stimulus":"\n                    <p><b>Action: <em>avoid</em></b></p>\n                    <p>This is the bee that you just saw.</p>\n                    <img src=\"bees-with-color/bee-A2DF.svg\" width=\"200\">\n                    <p><br>Your bonus pay is unchanged, and remains at $0.88.</p>\n            ","response":0,"trial_type":"html-button-response","trial_index":132,"time_elapsed":317306,"internal_node_id":"0.0-4.0-1.62","subject_id":"61607b22aede63bd986af738","study_id":"60edd13110225f80f9f3709b","session_id":"6196c1f6239a38ae3b688523","condition":"contingent","relevant_dimensions":["wings","legs"],"bee_group":{"antennae":"X","wings":"2","pattern":"X","legs":"F"},"bonus":1.0000000000000009},{"rt":862,"stimulus":"bees-with-color/bee-B1DM.svg","response":0,"trial_type":"image-button-response","trial_index":133,"time_elapsed":318170,"internal_node_id":"0.0-4.0-0.63","subject_id":"61607b22aede63bd986af738","study_id":"60edd13110225f80f9f3709b","session_id":"6196c1f6239a38ae3b688523","condition":"contingent","relevant_dimensions":["wings","legs"],"bee_group":{"antennae":"X","wings":"2","pattern":"X","legs":"F"},"action":"harvest","summary":"good-harvest","bonus":1.0000000000000009},{"rt":703,"stimulus":"\n                    <p><b>Action: <em>harvest</em></b></p>\n                    <p>This is the bee that you just saw.</p>\n                    <img src=\"bees-with-color/bee-B1DM.svg\" width=\"200\">\n                    <p><span class=\"greenText\"><b>Successful harvest!</b></span><br>Your pay has increased by $0.02. Your bonus pay is now $0.90.</p>\n            ","response":0,"trial_type":"html-button-response","trial_index":134,"time_elapsed":318874,"internal_node_id":"0.0-4.0-1.63","subject_id":"61607b22aede63bd986af738","study_id":"60edd13110225f80f9f3709b","session_id":"6196c1f6239a38ae3b688523","condition":"contingent","relevant_dimensions":["wings","legs"],"bee_group":{"antennae":"X","wings":"2","pattern":"X","legs":"F"},"bonus":1.0000000000000009},{"rt":11460,"stimulus":"You have completed the first part of this experiment.<br><br>You will now begin a shorter second part, in which you will receive no feedback.<br>The same rules regarding bonus pay apply.<br><br>Press any key to begin.","response":"b","trial_type":"html-keyboard-response","trial_index":135,"time_elapsed":330335,"internal_node_id":"0.0-5.0","subject_id":"61607b22aede63bd986af738","study_id":"60edd13110225f80f9f3709b","session_id":"6196c1f6239a38ae3b688523","condition":"contingent","relevant_dimensions":["wings","legs"],"bee_group":{"antennae":"X","wings":"2","pattern":"X","legs":"F"},"bonus":1.0000000000000009},{"rt":4171,"stimulus":"bees-with-color/bee-B2SF.svg","response":1,"trial_type":"image-button-response","trial_index":136,"time_elapsed":334506,"internal_node_id":"0.0-6.0-0.0","subject_id":"61607b22aede63bd986af738","study_id":"60edd13110225f80f9f3709b","session_id":"6196c1f6239a38ae3b688523","condition":"contingent","relevant_dimensions":["wings","legs"],"bee_group":{"antennae":"X","wings":"2","pattern":"X","legs":"F"},"bonus":1.0000000000000009},{"rt":2230,"stimulus":"bees-with-color/bee-A1SM.svg","response":0,"trial_type":"image-button-response","trial_index":137,"time_elapsed":336738,"internal_node_id":"0.0-6.0-0.1","subject_id":"61607b22aede63bd986af738","study_id":"60edd13110225f80f9f3709b","session_id":"6196c1f6239a38ae3b688523","condition":"contingent","relevant_dimensions":["wings","legs"],"bee_group":{"antennae":"X","wings":"2","pattern":"X","legs":"F"},"bonus":1.0000000000000009},{"rt":935,"stimulus":"bees-with-color/bee-B1DM.svg","response":1,"trial_type":"image-button-response","trial_index":138,"time_elapsed":337674,"internal_node_id":"0.0-6.0-0.2","subject_id":"61607b22aede63bd986af738","study_id":"60edd13110225f80f9f3709b","session_id":"6196c1f6239a38ae3b688523","condition":"contingent","relevant_dimensions":["wings","legs"],"bee_group":{"antennae":"X","wings":"2","pattern":"X","legs":"F"},"bonus":1.0000000000000009},{"rt":1855,"stimulus":"bees-with-color/bee-A2DF.svg","response":1,"trial_type":"image-button-response","trial_index":139,"time_elapsed":339530,"internal_node_id":"0.0-6.0-0.3","subject_id":"61607b22aede63bd986af738","study_id":"60edd13110225f80f9f3709b","session_id":"6196c1f6239a38ae3b688523","condition":"contingent","relevant_dimensions":["wings","legs"],"bee_group":{"antennae":"X","wings":"2","pattern":"X","legs":"F"},"bonus":1.0000000000000009},{"rt":3270,"stimulus":"bees-with-color/bee-B2SM.svg","response":0,"trial_type":"image-button-response","trial_index":140,"time_elapsed":342802,"internal_node_id":"0.0-6.0-0.4","subject_id":"61607b22aede63bd986af738","study_id":"60edd13110225f80f9f3709b","session_id":"6196c1f6239a38ae3b688523","condition":"contingent","relevant_dimensions":["wings","legs"],"bee_group":{"antennae":"X","wings":"2","pattern":"X","legs":"F"},"bonus":1.0000000000000009},{"rt":2582,"stimulus":"bees-with-color/bee-A1DM.svg","response":1,"trial_type":"image-button-response","trial_index":141,"time_elapsed":345386,"internal_node_id":"0.0-6.0-0.5","subject_id":"61607b22aede63bd986af738","study_id":"60edd13110225f80f9f3709b","session_id":"6196c1f6239a38ae3b688523","condition":"contingent","relevant_dimensions":["wings","legs"],"bee_group":{"antennae":"X","wings":"2","pattern":"X","legs":"F"},"bonus":1.0000000000000009},{"rt":239,"stimulus":"bees-with-color/bee-B2DM.svg","response":1,"trial_type":"image-button-response","trial_index":142,"time_elapsed":345626,"internal_node_id":"0.0-6.0-0.6","subject_id":"61607b22aede63bd986af738","study_id":"60edd13110225f80f9f3709b","session_id":"6196c1f6239a38ae3b688523","condition":"contingent","relevant_dimensions":["wings","legs"],"bee_group":{"antennae":"X","wings":"2","pattern":"X","legs":"F"},"bonus":1.0000000000000009},{"rt":294,"stimulus":"bees-with-color/bee-A2SM.svg","response":0,"trial_type":"image-button-response","trial_index":143,"time_elapsed":345922,"internal_node_id":"0.0-6.0-0.7","subject_id":"61607b22aede63bd986af738","study_id":"60edd13110225f80f9f3709b","session_id":"6196c1f6239a38ae3b688523","condition":"contingent","relevant_dimensions":["wings","legs"],"bee_group":{"antennae":"X","wings":"2","pattern":"X","legs":"F"},"bonus":1.0000000000000009},{"rt":431,"stimulus":"bees-with-color/bee-B1SF.svg","response":1,"trial_type":"image-button-response","trial_index":144,"time_elapsed":346354,"internal_node_id":"0.0-6.0-0.8","subject_id":"61607b22aede63bd986af738","study_id":"60edd13110225f80f9f3709b","session_id":"6196c1f6239a38ae3b688523","condition":"contingent","relevant_dimensions":["wings","legs"],"bee_group":{"antennae":"X","wings":"2","pattern":"X","legs":"F"},"bonus":1.0000000000000009},{"rt":248,"stimulus":"bees-with-color/bee-A2DM.svg","response":1,"trial_type":"image-button-response","trial_index":145,"time_elapsed":346602,"internal_node_id":"0.0-6.0-0.9","subject_id":"61607b22aede63bd986af738","study_id":"60edd13110225f80f9f3709b","session_id":"6196c1f6239a38ae3b688523","condition":"contingent","relevant_dimensions":["wings","legs"],"bee_group":{"antennae":"X","wings":"2","pattern":"X","legs":"F"},"bonus":1.0000000000000009},{"rt":311,"stimulus":"bees-with-color/bee-B1DF.svg","response":0,"trial_type":"image-button-response","trial_index":146,"time_elapsed":346914,"internal_node_id":"0.0-6.0-0.10","subject_id":"61607b22aede63bd986af738","study_id":"60edd13110225f80f9f3709b","session_id":"6196c1f6239a38ae3b688523","condition":"contingent","relevant_dimensions":["wings","legs"],"bee_group":{"antennae":"X","wings":"2","pattern":"X","legs":"F"},"bonus":1.0000000000000009},{"rt":310,"stimulus":"bees-with-color/bee-A2SF.svg","response":1,"trial_type":"image-button-response","trial_index":147,"time_elapsed":347226,"internal_node_id":"0.0-6.0-0.11","subject_id":"61607b22aede63bd986af738","study_id":"60edd13110225f80f9f3709b","session_id":"6196c1f6239a38ae3b688523","condition":"contingent","relevant_dimensions":["wings","legs"],"bee_group":{"antennae":"X","wings":"2","pattern":"X","legs":"F"},"bonus":1.0000000000000009},{"rt":256,"stimulus":"bees-with-color/bee-B1SM.svg","response":1,"trial_type":"image-button-response","trial_index":148,"time_elapsed":347482,"internal_node_id":"0.0-6.0-0.12","subject_id":"61607b22aede63bd986af738","study_id":"60edd13110225f80f9f3709b","session_id":"6196c1f6239a38ae3b688523","condition":"contingent","relevant_dimensions":["wings","legs"],"bee_group":{"antennae":"X","wings":"2","pattern":"X","legs":"F"},"bonus":1.0000000000000009},{"rt":295,"stimulus":"bees-with-color/bee-B2DF.svg","response":0,"trial_type":"image-button-response","trial_index":149,"time_elapsed":347778,"internal_node_id":"0.0-6.0-0.13","subject_id":"61607b22aede63bd986af738","study_id":"60edd13110225f80f9f3709b","session_id":"6196c1f6239a38ae3b688523","condition":"contingent","relevant_dimensions":["wings","legs"],"bee_group":{"antennae":"X","wings":"2","pattern":"X","legs":"F"},"bonus":1.0000000000000009},{"rt":454,"stimulus":"bees-with-color/bee-A1DF.svg","response":1,"trial_type":"image-button-response","trial_index":150,"time_elapsed":348234,"internal_node_id":"0.0-6.0-0.14","subject_id":"61607b22aede63bd986af738","study_id":"60edd13110225f80f9f3709b","session_id":"6196c1f6239a38ae3b688523","condition":"contingent","relevant_dimensions":["wings","legs"],"bee_group":{"antennae":"X","wings":"2","pattern":"X","legs":"F"},"bonus":1.0000000000000009},{"rt":166,"stimulus":"bees-with-color/bee-A1SF.svg","response":1,"trial_type":"image-button-response","trial_index":151,"time_elapsed":348402,"internal_node_id":"0.0-6.0-0.15","subject_id":"61607b22aede63bd986af738","study_id":"60edd13110225f80f9f3709b","session_id":"6196c1f6239a38ae3b688523","condition":"contingent","relevant_dimensions":["wings","legs"],"bee_group":{"antennae":"X","wings":"2","pattern":"X","legs":"F"},"bonus":1.0000000000000009},{"rt":287,"stimulus":"bees-with-color/bee-B1SF.svg","response":0,"trial_type":"image-button-response","trial_index":152,"time_elapsed":348691,"internal_node_id":"0.0-6.0-0.16","subject_id":"61607b22aede63bd986af738","study_id":"60edd13110225f80f9f3709b","session_id":"6196c1f6239a38ae3b688523","condition":"contingent","relevant_dimensions":["wings","legs"],"bee_group":{"antennae":"X","wings":"2","pattern":"X","legs":"F"},"bonus":1.0000000000000009},{"rt":438,"stimulus":"bees-with-color/bee-A2DF.svg","response":1,"trial_type":"image-button-response","trial_index":153,"time_elapsed":349130,"internal_node_id":"0.0-6.0-0.17","subject_id":"61607b22aede63bd986af738","study_id":"60edd13110225f80f9f3709b","session_id":"6196c1f6239a38ae3b688523","condition":"contingent","relevant_dimensions":["wings","legs"],"bee_group":{"antennae":"X","wings":"2","pattern":"X","legs":"F"},"bonus":1.0000000000000009},{"rt":143,"stimulus":"bees-with-color/bee-A1SM.svg","response":1,"trial_type":"image-button-response","trial_index":154,"time_elapsed":349275,"internal_node_id":"0.0-6.0-0.18","subject_id":"61607b22aede63bd986af738","study_id":"60edd13110225f80f9f3709b","session_id":"6196c1f6239a38ae3b688523","condition":"contingent","relevant_dimensions":["wings","legs"],"bee_group":{"antennae":"X","wings":"2","pattern":"X","legs":"F"},"bonus":1.0000000000000009},{"rt":271,"stimulus":"bees-with-color/bee-B1DF.svg","response":0,"trial_type":"image-button-response","trial_index":155,"time_elapsed":349546,"internal_node_id":"0.0-6.0-0.19","subject_id":"61607b22aede63bd986af738","study_id":"60edd13110225f80f9f3709b","session_id":"6196c1f6239a38ae3b688523","condition":"contingent","relevant_dimensions":["wings","legs"],"bee_group":{"antennae":"X","wings":"2","pattern":"X","legs":"F"},"bonus":1.0000000000000009},{"rt":288,"stimulus":"bees-with-color/bee-A1DF.svg","response":1,"trial_type":"image-button-response","trial_index":156,"time_elapsed":349834,"internal_node_id":"0.0-6.0-0.20","subject_id":"61607b22aede63bd986af738","study_id":"60edd13110225f80f9f3709b","session_id":"6196c1f6239a38ae3b688523","condition":"contingent","relevant_dimensions":["wings","legs"],"bee_group":{"antennae":"X","wings":"2","pattern":"X","legs":"F"},"bonus":1.0000000000000009},{"rt":144,"stimulus":"bees-with-color/bee-B2SF.svg","response":1,"trial_type":"image-button-response","trial_index":157,"time_elapsed":349978,"internal_node_id":"0.0-6.0-0.21","subject_id":"61607b22aede63bd986af738","study_id":"60edd13110225f80f9f3709b","session_id":"6196c1f6239a38ae3b688523","condition":"contingent","relevant_dimensions":["wings","legs"],"bee_group":{"antennae":"X","wings":"2","pattern":"X","legs":"F"},"bonus":1.0000000000000009},{"rt":455,"stimulus":"bees-with-color/bee-A1DM.svg","response":0,"trial_type":"image-button-response","trial_index":158,"time_elapsed":350434,"internal_node_id":"0.0-6.0-0.22","subject_id":"61607b22aede63bd986af738","study_id":"60edd13110225f80f9f3709b","session_id":"6196c1f6239a38ae3b688523","condition":"contingent","relevant_dimensions":["wings","legs"],"bee_group":{"antennae":"X","wings":"2","pattern":"X","legs":"F"},"bonus":1.0000000000000009},{"rt":295,"stimulus":"bees-with-color/bee-B1DM.svg","response":1,"trial_type":"image-button-response","trial_index":159,"time_elapsed":350731,"internal_node_id":"0.0-6.0-0.23","subject_id":"61607b22aede63bd986af738","study_id":"60edd13110225f80f9f3709b","session_id":"6196c1f6239a38ae3b688523","condition":"contingent","relevant_dimensions":["wings","legs"],"bee_group":{"antennae":"X","wings":"2","pattern":"X","legs":"F"},"bonus":1.0000000000000009},{"rt":134,"stimulus":"bees-with-color/bee-A2SM.svg","response":1,"trial_type":"image-button-response","trial_index":160,"time_elapsed":350867,"internal_node_id":"0.0-6.0-0.24","subject_id":"61607b22aede63bd986af738","study_id":"60edd13110225f80f9f3709b","session_id":"6196c1f6239a38ae3b688523","condition":"contingent","relevant_dimensions":["wings","legs"],"bee_group":{"antennae":"X","wings":"2","pattern":"X","legs":"F"},"bonus":1.0000000000000009},{"rt":342,"stimulus":"bees-with-color/bee-A2DM.svg","response":0,"trial_type":"image-button-response","trial_index":161,"time_elapsed":351210,"internal_node_id":"0.0-6.0-0.25","subject_id":"61607b22aede63bd986af738","study_id":"60edd13110225f80f9f3709b","session_id":"6196c1f6239a38ae3b688523","condition":"contingent","relevant_dimensions":["wings","legs"],"bee_group":{"antennae":"X","wings":"2","pattern":"X","legs":"F"},"bonus":1.0000000000000009},{"rt":273,"stimulus":"bees-with-color/bee-B2DM.svg","response":1,"trial_type":"image-button-response","trial_index":162,"time_elapsed":351483,"internal_node_id":"0.0-6.0-0.26","subject_id":"61607b22aede63bd986af738","study_id":"60edd13110225f80f9f3709b","session_id":"6196c1f6239a38ae3b688523","condition":"contingent","relevant_dimensions":["wings","legs"],"bee_group":{"antennae":"X","wings":"2","pattern":"X","legs":"F"},"bonus":1.0000000000000009},{"rt":134,"stimulus":"bees-with-color/bee-A1SF.svg","response":1,"trial_type":"image-button-response","trial_index":163,"time_elapsed":351618,"internal_node_id":"0.0-6.0-0.27","subject_id":"61607b22aede63bd986af738","study_id":"60edd13110225f80f9f3709b","session_id":"6196c1f6239a38ae3b688523","condition":"contingent","relevant_dimensions":["wings","legs"],"bee_group":{"antennae":"X","wings":"2","pattern":"X","legs":"F"},"bonus":1.0000000000000009},{"rt":270,"stimulus":"bees-with-color/bee-B2SM.svg","response":0,"trial_type":"image-button-response","trial_index":164,"time_elapsed":351890,"internal_node_id":"0.0-6.0-0.28","subject_id":"61607b22aede63bd986af738","study_id":"60edd13110225f80f9f3709b","session_id":"6196c1f6239a38ae3b688523","condition":"contingent","relevant_dimensions":["wings","legs"],"bee_group":{"antennae":"X","wings":"2","pattern":"X","legs":"F"},"bonus":1.0000000000000009},{"rt":303,"stimulus":"bees-with-color/bee-B2DF.svg","response":1,"trial_type":"image-button-response","trial_index":165,"time_elapsed":352194,"internal_node_id":"0.0-6.0-0.29","subject_id":"61607b22aede63bd986af738","study_id":"60edd13110225f80f9f3709b","session_id":"6196c1f6239a38ae3b688523","condition":"contingent","relevant_dimensions":["wings","legs"],"bee_group":{"antennae":"X","wings":"2","pattern":"X","legs":"F"},"bonus":1.0000000000000009},{"rt":119,"stimulus":"bees-with-color/bee-A2SF.svg","response":1,"trial_type":"image-button-response","trial_index":166,"time_elapsed":352314,"internal_node_id":"0.0-6.0-0.30","subject_id":"61607b22aede63bd986af738","study_id":"60edd13110225f80f9f3709b","session_id":"6196c1f6239a38ae3b688523","condition":"contingent","relevant_dimensions":["wings","legs"],"bee_group":{"antennae":"X","wings":"2","pattern":"X","legs":"F"},"bonus":1.0000000000000009},{"rt":670,"stimulus":"bees-with-color/bee-B1SM.svg","response":0,"trial_type":"image-button-response","trial_index":167,"time_elapsed":352986,"internal_node_id":"0.0-6.0-0.31","subject_id":"61607b22aede63bd986af738","study_id":"60edd13110225f80f9f3709b","session_id":"6196c1f6239a38ae3b688523","condition":"contingent","relevant_dimensions":["wings","legs"],"bee_group":{"antennae":"X","wings":"2","pattern":"X","legs":"F"},"bonus":1.0000000000000009},{"rt":3520,"stimulus":"You started with $2.50 of base pay.<br><br>\n            You made $1.00 in bonus pay,\n            for a total of <b>$3.50</b>.","response":0,"trial_type":"html-button-response","trial_index":168,"time_elapsed":356506,"internal_node_id":"0.0-7.0-0.0","subject_id":"61607b22aede63bd986af738","study_id":"60edd13110225f80f9f3709b","session_id":"6196c1f6239a38ae3b688523","condition":"contingent","relevant_dimensions":["wings","legs"],"bee_group":{"antennae":"X","wings":"2","pattern":"X","legs":"F"},"bonus":1.0000000000000009},{"rt":13356,"response":{"percent-dangerous-bees":"40"},"trial_type":"survey-text","trial_index":169,"time_elapsed":369866,"internal_node_id":"0.0-7.0-1.0","subject_id"