[{"success":true,"trial_type":"fullscreen","trial_index":0,"time_elapsed":2332,"internal_node_id":"0.0-0.0","subject_id":"60996da21cfc7cc1a24e32c0","study_id":"60edd13110225f80f9f3709b","session_id":"6196c7069d2690d2ed3b6a31","condition":"contingent","relevant_dimensions":["antennae","wings"],"bee_group":{"antennae":"A","wings":"1","pattern":"X","legs":"X"},"bonus":0.980000000000001},{"success":true,"timeout":false,"failed_images":[],"failed_audio":[],"failed_video":[],"trial_type":"preload","trial_index":1,"time_elapsed":3800,"internal_node_id":"0.0-1.0","subject_id":"60996da21cfc7cc1a24e32c0","study_id":"60edd13110225f80f9f3709b","session_id":"6196c7069d2690d2ed3b6a31","condition":"contingent","relevant_dimensions":["antennae","wings"],"bee_group":{"antennae":"A","wings":"1","pattern":"X","legs":"X"},"bonus":0.980000000000001},{"rt":3310,"stimulus":"Welcome! Press any key to begin.","response":"enter","trial_type":"html-keyboard-response","trial_index":2,"time_elapsed":7111,"internal_node_id":"0.0-2.0","subject_id":"60996da21cfc7cc1a24e32c0","study_id":"60edd13110225f80f9f3709b","session_id":"6196c7069d2690d2ed3b6a31","condition":"contingent","relevant_dimensions":["antennae","wings"],"bee_group":{"antennae":"A","wings":"1","pattern":"X","legs":"X"},"bonus":0.980000000000001},{"view_history":[{"page_index":0,"viewing_time":2439},{"page_index":1,"viewing_time":7065},{"page_index":2,"viewing_time":8487},{"page_index":3,"viewing_time":18758},{"page_index":4,"viewing_time":6194},{"page_index":5,"viewing_time":6042},{"page_index":6,"viewing_time":6157},{"page_index":7,"viewing_time":9294},{"page_index":8,"viewing_time":38320},{"page_index":9,"viewing_time":11500},{"page_index":10,"viewing_time":7765},{"page_index":11,"viewing_time":5209},{"page_index":12,"viewing_time":19958},{"page_index":13,"viewing_time":2085},{"page_index":14,"viewing_time":1706}],"rt":150979,"trial_type":"instructions","trial_index":3,"time_elapsed":158091,"internal_node_id":"0.0-3.0-0.0","subject_id":"60996da21cfc7cc1a24e32c0","study_id":"60edd13110225f80f9f3709b","session_id":"6196c7069d2690d2ed3b6a31","condition":"contingent","relevant_dimensions":["antennae","wings"],"bee_group":{"antennae":"A","wings":"1","pattern":"X","legs":"X"},"bonus":0.980000000000001},{"rt":9934,"response":{"Q0":["Two or six legs","Stripes or spots on body","Single or double wings","Antennae or no antennae"]},"question_order":[0],"trial_type":"survey-multi-select","trial_index":4,"time_elapsed":168029,"internal_node_id":"0.0-3.0-1.0","subject_id":"60996da21cfc7cc1a24e32c0","study_id":"60edd13110225f80f9f3709b","session_id":"6196c7069d2690d2ed3b6a31","condition":"contingent","relevant_dimensions":["antennae","wings"],"bee_group":{"antennae":"A","wings":"1","pattern":"X","legs":"X"},"correct":true,"bonus":0.980000000000001},{"rt":37453,"response":{"Q1":"No.","Q2":"Based on the four features of the bee.","Q3":"You do not learn if it was friendly or dangerous, and do not alter your bonus."},"question_order":[0,1,2],"trial_type":"survey-multi-choice","trial_index":5,"time_elapsed":205484,"internal_node_id":"0.0-3.0-2.0","subject_id":"60996da21cfc7cc1a24e32c0","study_id":"60edd13110225f80f9f3709b","session_id":"6196c7069d2690d2ed3b6a31","condition":"contingent","relevant_dimensions":["antennae","wings"],"bee_group":{"antennae":"A","wings":"1","pattern":"X","legs":"X"},"correct":true,"bonus":0.980000000000001},{"rt":3165,"stimulus":"<p>Congrats, you got everything right<br>When you're ready, click the button below to continue to the experiment.</p>","response":0,"trial_type":"html-button-response","trial_index":6,"time_elapsed":208651,"internal_node_id":"0.0-3.0-3.0","subject_id":"60996da21cfc7cc1a24e32c0","study_id":"60edd13110225f80f9f3709b","session_id":"6196c7069d2690d2ed3b6a31","condition":"contingent","relevant_dimensions":["antennae","wings"],"bee_group":{"antennae":"A","wings":"1","pattern":"X","legs":"X"},"bonus":0.980000000000001},{"rt":18566,"stimulus":"bees-with-color/bee-A2DF.svg","response":0,"trial_type":"image-button-response","trial_index":7,"time_elapsed":227221,"internal_node_id":"0.0-4.0-0.0","subject_id":"60996da21cfc7cc1a24e32c0","study_id":"60edd13110225f80f9f3709b","session_id":"6196c7069d2690d2ed3b6a31","condition":"contingent","relevant_dimensions":["antennae","wings"],"bee_group":{"antennae":"A","wings":"1","pattern":"X","legs":"X"},"action":"harvest","summary":"good-harvest","bonus":0.980000000000001},{"rt":16117,"stimulus":"\n                    <p><b>Action: <em>harvest</em></b></p>\n                    <p>This is the bee that you just saw.</p>\n                    <img src=\"bees-with-color/bee-A2DF.svg\" width=\"200\">\n                    <p><span class=\"greenText\"><b>Successful harvest!</b></span><br>Your pay has increased by $0.02. Your bonus pay is now $0.56.</p>\n            ","response":0,"trial_type":"html-button-response","trial_index":8,"time_elapsed":243351,"internal_node_id":"0.0-4.0-1.0","subject_id":"60996da21cfc7cc1a24e32c0","study_id":"60edd13110225f80f9f3709b","session_id":"6196c7069d2690d2ed3b6a31","condition":"contingent","relevant_dimensions":["antennae","wings"],"bee_group":{"antennae":"A","wings":"1","pattern":"X","legs":"X"},"bonus":0.980000000000001},{"rt":3984,"stimulus":"bees-with-color/bee-A2DM.svg","response":0,"trial_type":"image-button-response","trial_index":9,"time_elapsed":247336,"internal_node_id":"0.0-4.0-0.1","subject_id":"60996da21cfc7cc1a24e32c0","study_id":"60edd13110225f80f9f3709b","session_id":"6196c7069d2690d2ed3b6a31","condition":"contingent","relevant_dimensions":["antennae","wings"],"bee_group":{"antennae":"A","wings":"1","pattern":"X","legs":"X"},"action":"harvest","summary":"good-harvest","bonus":0.980000000000001},{"rt":12001,"stimulus":"\n                    <p><b>Action: <em>harvest</em></b></p>\n                    <p>This is the bee that you just saw.</p>\n                    <img src=\"bees-with-color/bee-A2DM.svg\" width=\"200\">\n                    <p><span class=\"greenText\"><b>Successful harvest!</b></span><br>Your pay has increased by $0.02. Your bonus pay is now $0.58.</p>\n            ","response":0,"trial_type":"html-button-response","trial_index":10,"time_elapsed":259339,"internal_node_id":"0.0-4.0-1.1","subject_id":"60996da21cfc7cc1a24e32c0","study_id":"60edd13110225f80f9f3709b","session_id":"6196c7069d2690d2ed3b6a31","condition":"contingent","relevant_dimensions":["antennae","wings"],"bee_group":{"antennae":"A","wings":"1","pattern":"X","legs":"X"},"bonus":0.980000000000001},{"rt":15716,"stimulus":"bees-with-color/bee-B2DF.svg","response":0,"trial_type":"image-button-response","trial_index":11,"time_elapsed":275055,"internal_node_id":"0.0-4.0-0.2","subject_id":"60996da21cfc7cc1a24e32c0","study_id":"60edd13110225f80f9f3709b","session_id":"6196c7069d2690d2ed3b6a31","condition":"contingent","relevant_dimensions":["antennae","wings"],"bee_group":{"antennae":"A","wings":"1","pattern":"X","legs":"X"},"action":"harvest","summary":"good-harvest","bonus":0.980000000000001},{"rt":25283,"stimulus":"\n                    <p><b>Action: <em>harvest</em></b></p>\n                    <p>This is the bee that you just saw.</p>\n                    <img src=\"bees-with-color/bee-B2DF.svg\" width=\"200\">\n                    <p><span class=\"greenText\"><b>Successful harvest!</b></span><br>Your pay has increased by $0.02. Your bonus pay is now $0.60.</p>\n            ","response":0,"trial_type":"html-button-response","trial_index":12,"time_elapsed":300340,"internal_node_id":"0.0-4.0-1.2","subject_id":"60996da21cfc7cc1a24e32c0","study_id":"60edd13110225f80f9f3709b","session_id":"6196c7069d2690d2ed3b6a31","condition":"contingent","relevant_dimensions":["antennae","wings"],"bee_group":{"antennae":"A","wings":"1","pattern":"X","legs":"X"},"bonus":0.980000000000001},{"rt":5033,"stimulus":"bees-with-color/bee-A1SM.svg","response":1,"trial_type":"image-button-response","trial_index":13,"time_elapsed":305375,"internal_node_id":"0.0-4.0-0.3","subject_id":"60996da21cfc7cc1a24e32c0","study_id":"60edd13110225f80f9f3709b","session_id":"6196c7069d2690d2ed3b6a31","condition":"contingent","relevant_dimensions":["antennae","wings"],"bee_group":{"antennae":"A","wings":"1","pattern":"X","legs":"X"},"action":"avoid","summary":"good-avoid","bonus":0.980000000000001},{"rt":3092,"stimulus":"\n                    <p><b>Action: <em>avoid</em></b></p>\n                    <p>This is the bee that you just saw.</p>\n                    <img src=\"bees-with-color/bee-A1SM.svg\" width=\"200\">\n                    <p><br>Your bonus pay is unchanged, and remains at $0.60.</p>\n            ","response":0,"trial_type":"html-button-response","trial_index":14,"time_elapsed":308467,"internal_node_id":"0.0-4.0-1.3","subject_id":"60996da21cfc7cc1a24e32c0","study_id":"60edd13110225f80f9f3709b","session_id":"6196c7069d2690d2ed3b6a31","condition":"contingent","relevant_dimensions":["antennae","wings"],"bee_group":{"antennae":"A","wings":"1","pattern":"X","legs":"X"},"bonus":0.980000000000001},{"rt":9397,"stimulus":"bees-with-color/bee-B1DF.svg","response":0,"trial_type":"image-button-response","trial_index":15,"time_elapsed":317865,"internal_node_id":"0.0-4.0-0.4","subject_id":"60996da21cfc7cc1a24e32c0","study_id":"60edd13110225f80f9f3709b","session_id":"6196c7069d2690d2ed3b6a31","condition":"contingent","relevant_dimensions":["antennae","wings"],"bee_group":{"antennae":"A","wings":"1","pattern":"X","legs":"X"},"action":"harvest","summary":"good-harvest","bonus":0.980000000000001},{"rt":16636,"stimulus":"\n                    <p><b>Action: <em>harvest</em></b></p>\n                    <p>This is the bee that you just saw.</p>\n                    <img src=\"bees-with-color/bee-B1DF.svg\" width=\"200\">\n                    <p><span class=\"greenText\"><b>Successful harvest!</b></span><br>Your pay has increased by $0.02. Your bonus pay is now $0.62.</p>\n            ","response":0,"trial_type":"html-button-response","trial_index":16,"time_elapsed":334502,"internal_node_id":"0.0-4.0-1.4","subject_id":"60996da21cfc7cc1a24e32c0","study_id":"60edd13110225f80f9f3709b","session_id":"6196c7069d2690d2ed3b6a31","condition":"contingent","relevant_dimensions":["antennae","wings"],"bee_group":{"antennae":"A","wings":"1","pattern":"X","legs":"X"},"bonus":0.980000000000001},{"rt":5780,"stimulus":"bees-with-color/bee-A1DF.svg","response":0,"trial_type":"image-button-response","trial_index":17,"time_elapsed":340282,"internal_node_id":"0.0-4.0-0.5","subject_id":"60996da21cfc7cc1a24e32c0","study_id":"60edd13110225f80f9f3709b","session_id":"6196c7069d2690d2ed3b6a31","condition":"contingent","relevant_dimensions":["antennae","wings"],"bee_group":{"antennae":"A","wings":"1","pattern":"X","legs":"X"},"action":"harvest","summary":"bad-harvest","bonus":0.980000000000001},{"rt":35106,"stimulus":"\n                    <p><b>Action: <em>harvest</em></b></p>\n                    <p>This is the bee that you just saw.</p>\n                    <img src=\"bees-with-color/bee-A1DF.svg\" width=\"200\">\n                    <p><span class=\"redText\">Bad choice, the bee was angry.</span><br><b>You have been stung!</b><br>Your pay has been decreased by $0.10. Your bonus pay is now $0.52.</p>\n            ","response":0,"trial_type":"html-button-response","trial_index":18,"time_elapsed":375389,"internal_node_id":"0.0-4.0-1.5","subject_id":"60996da21cfc7cc1a24e32c0","study_id":"60edd13110225f80f9f3709b","session_id":"6196c7069d2690d2ed3b6a31","condition":"contingent","relevant_dimensions":["antennae","wings"],"bee_group":{"antennae":"A","wings":"1","pattern":"X","legs":"X"},"bonus":0.980000000000001},{"rt":18310,"stimulus":"bees-with-color/bee-B2SF.svg","response":0,"trial_type":"image-button-response","trial_index":19,"time_elapsed":393700,"internal_node_id":"0.0-4.0-0.6","subject_id":"60996da21cfc7cc1a24e32c0","study_id":"60edd13110225f80f9f3709b","session_id":"6196c7069d2690d2ed3b6a31","condition":"contingent","relevant_dimensions":["antennae","wings"],"bee_group":{"antennae":"A","wings":"1","pattern":"X","legs":"X"},"action":"harvest","summary":"good-harvest","bonus":0.980000000000001},{"rt":4001,"stimulus":"\n                    <p><b>Action: <em>harvest</em></b></p>\n                    <p>This is the bee that you just saw.</p>\n                    <img src=\"bees-with-color/bee-B2SF.svg\" width=\"200\">\n                    <p><span class=\"greenText\"><b>Successful harvest!</b></span><br>Your pay has increased by $0.02. Your bonus pay is now $0.54.</p>\n            ","response":0,"trial_type":"html-button-response","trial_index":20,"time_elapsed":397702,"internal_node_id":"0.0-4.0-1.6","subject_id":"60996da21cfc7cc1a24e32c0","study_id":"60edd13110225f80f9f3709b","session_id":"6196c7069d2690d2ed3b6a31","condition":"contingent","relevant_dimensions":["antennae","wings"],"bee_group":{"antennae":"A","wings":"1","pattern":"X","legs":"X"},"bonus":0.980000000000001},{"rt":13066,"stimulus":"bees-with-color/bee-B1SM.svg","response":0,"trial_type":"image-button-response","trial_index":21,"time_elapsed":410768,"internal_node_id":"0.0-4.0-0.7","subject_id":"60996da21cfc7cc1a24e32c0","study_id":"60edd13110225f80f9f3709b","session_id":"6196c7069d2690d2ed3b6a31","condition":"contingent","relevant_dimensions":["antennae","wings"],"bee_group":{"antennae":"A","wings":"1","pattern":"X","legs":"X"},"action":"harvest","summary":"good-harvest","bonus":0.980000000000001},{"rt":3839,"stimulus":"\n                    <p><b>Action: <em>harvest</em></b></p>\n                    <p>This is the bee that you just saw.</p>\n                    <img src=\"bees-with-color/bee-B1SM.svg\" width=\"200\">\n                    <p><span class=\"greenText\"><b>Successful harvest!</b></span><br>Your pay has increased by $0.02. Your bonus pay is now $0.56.</p>\n            ","response":0,"trial_type":"html-button-response","trial_index":22,"time_elapsed":414608,"internal_node_id":"0.0-4.0-1.7","subject_id":"60996da21cfc7cc1a24e32c0","study_id":"60edd13110225f80f9f3709b","session_id":"6196c7069d2690d2ed3b6a31","condition":"contingent","relevant_dimensions":["antennae","wings"],"bee_group":{"antennae":"A","wings":"1","pattern":"X","legs":"X"},"bonus":0.980000000000001},{"rt":14371,"stimulus":"bees-with-color/bee-A1SF.svg","response":0,"trial_type":"image-button-response","trial_index":23,"time_elapsed":428980,"internal_node_id":"0.0-4.0-0.8","subject_id":"60996da21cfc7cc1a24e32c0","study_id":"60edd13110225f80f9f3709b","session_id":"6196c7069d2690d2ed3b6a31","condition":"contingent","relevant_dimensions":["antennae","wings"],"bee_group":{"antennae":"A","wings":"1","pattern":"X","legs":"X"},"action":"harvest","summary":"bad-harvest","bonus":0.980000000000001},{"rt":4436,"stimulus":"\n                    <p><b>Action: <em>harvest</em></b></p>\n                    <p>This is the bee that you just saw.</p>\n                    <img src=\"bees-with-color/bee-A1SF.svg\" width=\"200\">\n                    <p><span class=\"redText\">Bad choice, the bee was angry.</span><br><b>You have been stung!</b><br>Your pay has been decreased by $0.10. Your bonus pay is now $0.46.</p>\n            ","response":0,"trial_type":"html-button-response","trial_index":24,"time_elapsed":433416,"internal_node_id":"0.0-4.0-1.8","subject_id":"60996da21cfc7cc1a24e32c0","study_id":"60edd13110225f80f9f3709b","session_id":"6196c7069d2690d2ed3b6a31","condition":"contingent","relevant_dimensions":["antennae","wings"],"bee_group":{"antennae":"A","wings":"1","pattern":"X","legs":"X"},"bonus":0.980000000000001},{"rt":8943,"stimulus":"bees-with-color/bee-B1SF.svg","response":0,"trial_type":"image-button-response","trial_index":25,"time_elapsed":442360,"internal_node_id":"0.0-4.0-0.9","subject_id":"60996da21cfc7cc1a24e32c0","study_id":"60edd13110225f80f9f3709b","session_id":"6196c7069d2690d2ed3b6a31","condition":"contingent","relevant_dimensions":["antennae","wings"],"bee_group":{"antennae":"A","wings":"1","pattern":"X","legs":"X"},"action":"harvest","summary":"good-harvest","bonus":0.980000000000001},{"rt":8489,"stimulus":"\n                    <p><b>Action: <em>harvest</em></b></p>\n                    <p>This is the bee that you just saw.</p>\n                    <img src=\"bees-with-color/bee-B1SF.svg\" width=\"200\">\n                    <p><span class=\"greenText\"><b>Successful harvest!</b></span><br>Your pay has increased by $0.02. Your bonus pay is now $0.48.</p>\n            ","response":0,"trial_type":"html-button-response","trial_index":26,"time_elapsed":450851,"internal_node_id":"0.0-4.0-1.9","subject_id":"60996da21cfc7cc1a24e32c0","study_id":"60edd13110225f80f9f3709b","session_id":"6196c7069d2690d2ed3b6a31","condition":"contingent","relevant_dimensions":["antennae","wings"],"bee_group":{"antennae":"A","wings":"1","pattern":"X","legs":"X"},"bonus":0.980000000000001},{"rt":23637,"stimulus":"bees-with-color/bee-B2DM.svg","response":1,"trial_type":"image-button-response","trial_index":27,"time_elapsed":474490,"internal_node_id":"0.0-4.0-0.10","subject_id":"60996da21cfc7cc1a24e32c0","study_id":"60edd13110225f80f9f3709b","session_id":"6196c7069d2690d2ed3b6a31","condition":"contingent","relevant_dimensions":["antennae","wings"],"bee_group":{"antennae":"A","wings":"1","pattern":"X","legs":"X"},"action":"avoid","summary":"bad-avoid","bonus":0.980000000000001},{"rt":998,"stimulus":"\n                    <p><b>Action: <em>avoid</em></b></p>\n                    <p>This is the bee that you just saw.</p>\n                    <img src=\"bees-with-color/bee-B2DM.svg\" width=\"200\">\n                    <p><br>Your bonus pay is unchanged, and remains at $0.48.</p>\n            ","response":0,"trial_type":"html-button-response","trial_index":28,"time_elapsed":475490,"internal_node_id":"0.0-4.0-1.10","subject_id":"60996da21cfc7cc1a24e32c0","study_id":"60edd13110225f80f9f3709b","session_id":"6196c7069d2690d2ed3b6a31","condition":"contingent","relevant_dimensions":["antennae","wings"],"bee_group":{"antennae":"A","wings":"1","pattern":"X","legs":"X"},"bonus":0.980000000000001},{"rt":9139,"stimulus":"bees-with-color/bee-A2SM.svg","response":0,"trial_type":"image-button-response","trial_index":29,"time_elapsed":484630,"internal_node_id":"0.0-4.0-0.11","subject_id":"60996da21cfc7cc1a24e32c0","study_id":"60edd13110225f80f9f3709b","session_id":"6196c7069d2690d2ed3b6a31","condition":"contingent","relevant_dimensions":["antennae","wings"],"bee_group":{"antennae":"A","wings":"1","pattern":"X","legs":"X"},"action":"harvest","summary":"good-harvest","bonus":0.980000000000001},{"rt":3411,"stimulus":"\n                    <p><b>Action: <em>harvest</em></b></p>\n                    <p>This is the bee that you just saw.</p>\n                    <img src=\"bees-with-color/bee-A2SM.svg\" width=\"200\">\n                    <p><span class=\"greenText\"><b>Successful harvest!</b></span><br>Your pay has increased by $0.02. Your bonus pay is now $0.50.</p>\n            ","response":0,"trial_type":"html-button-response","trial_index":30,"time_elapsed":488042,"internal_node_id":"0.0-4.0-1.11","subject_id":"60996da21cfc7cc1a24e32c0","study_id":"60edd13110225f80f9f3709b","session_id":"6196c7069d2690d2ed3b6a31","condition":"contingent","relevant_dimensions":["antennae","wings"],"bee_group":{"antennae":"A","wings":"1","pattern":"X","legs":"X"},"bonus":0.980000000000001},{"rt":24528,"stimulus":"bees-with-color/bee-A2SF.svg","response":0,"trial_type":"image-button-response","trial_index":31,"time_elapsed":512570,"internal_node_id":"0.0-4.0-0.12","subject_id":"60996da21cfc7cc1a24e32c0","study_id":"60edd13110225f80f9f3709b","session_id":"6196c7069d2690d2ed3b6a31","condition":"contingent","relevant_dimensions":["antennae","wings"],"bee_group":{"antennae":"A","wings":"1","pattern":"X","legs":"X"},"action":"harvest","summary":"good-harvest","bonus":0.980000000000001},{"rt":4390,"stimulus":"\n                    <p><b>Action: <em>harvest</em></b></p>\n                    <p>This is the bee that you just saw.</p>\n                    <img src=\"bees-with-color/bee-A2SF.svg\" width=\"200\">\n                    <p><span class=\"greenText\"><b>Successful harvest!</b></span><br>Your pay has increased by $0.02. Your bonus pay is now $0.52.</p>\n            ","response":0,"trial_type":"html-button-response","trial_index":32,"time_elapsed":516962,"internal_node_id":"0.0-4.0-1.12","subject_id":"60996da21cfc7cc1a24e32c0","study_id":"60edd13110225f80f9f3709b","session_id":"6196c7069d2690d2ed3b6a31","condition":"contingent","relevant_dimensions":["antennae","wings"],"bee_group":{"antennae":"A","wings":"1","pattern":"X","legs":"X"},"bonus":0.980000000000001},{"rt":15655,"stimulus":"bees-with-color/bee-A1DM.svg","response":0,"trial_type":"image-button-response","trial_index":33,"time_elapsed":532618,"internal_node_id":"0.0-4.0-0.13","subject_id":"60996da21cfc7cc1a24e32c0","study_id":"60edd13110225f80f9f3709b","session_id":"6196c7069d2690d2ed3b6a31","condition":"contingent","relevant_dimensions":["antennae","wings"],"bee_group":{"antennae":"A","wings":"1","pattern":"X","legs":"X"},"action":"harvest","summary":"bad-harvest","bonus":0.980000000000001},{"rt":4823,"stimulus":"\n                    <p><b>Action: <em>harvest</em></b></p>\n                    <p>This is the bee that you just saw.</p>\n                    <img src=\"bees-with-color/bee-A1DM.svg\" width=\"200\">\n                    <p><span class=\"redText\">Bad choice, the bee was angry.</span><br><b>You have been stung!</b><br>Your pay has been decreased by $0.10. Your bonus pay is now $0.42.</p>\n            ","response":0,"trial_type":"html-button-response","trial_index":34,"time_elapsed":537441,"internal_node_id":"0.0-4.0-1.13","subject_id":"60996da21cfc7cc1a24e32c0","study_id":"60edd13110225f80f9f3709b","session_id":"6196c7069d2690d2ed3b6a31","condition":"contingent","relevant_dimensions":["antennae","wings"],"bee_group":{"antennae":"A","wings":"1","pattern":"X","legs":"X"},"bonus":0.980000000000001},{"rt":12230,"stimulus":"bees-with-color/bee-B1DM.svg","response":0,"trial_type":"image-button-response","trial_index":35,"time_elapsed":549674,"internal_node_id":"0.0-4.0-0.14","subject_id":"60996da21cfc7cc1a24e32c0","study_id":"60edd13110225f80f9f3709b","session_id":"6196c7069d2690d2ed3b6a31","condition":"contingent","relevant_dimensions":["antennae","wings"],"bee_group":{"antennae":"A","wings":"1","pattern":"X","legs":"X"},"action":"harvest","summary":"good-harvest","bonus":0.980000000000001},{"rt":787,"stimulus":"\n                    <p><b>Action: <em>harvest</em></b></p>\n                    <p>This is the bee that you just saw.</p>\n                    <img src=\"bees-with-color/bee-B1DM.svg\" width=\"200\">\n                    <p><span class=\"greenText\"><b>Successful harvest!</b></span><br>Your pay has increased by $0.02. Your bonus pay is now $0.44.</p>\n            ","response":0,"trial_type":"html-button-response","trial_index":36,"time_elapsed":550461,"internal_node_id":"0.0-4.0-1.14","subject_id":"60996da21cfc7cc1a24e32c0","study_id":"60edd13110225f80f9f3709b","session_id":"6196c7069d2690d2ed3b6a31","condition":"contingent","relevant_dimensions":["antennae","wings"],"bee_group":{"antennae":"A","wings":"1","pattern":"X","legs":"X"},"bonus":0.980000000000001},{"rt":11611,"stimulus":"bees-with-color/bee-B2SM.svg","response":0,"trial_type":"image-button-response","trial_index":37,"time_elapsed":562073,"internal_node_id":"0.0-4.0-0.15","subject_id":"60996da21cfc7cc1a24e32c0","study_id":"60edd13110225f80f9f3709b","session_id":"6196c7069d2690d2ed3b6a31","condition":"contingent","relevant_dimensions":["antennae","wings"],"bee_group":{"antennae":"A","wings":"1","pattern":"X","legs":"X"},"action":"harvest","summary":"good-harvest","bonus":0.980000000000001},{"rt":4451,"stimulus":"\n                    <p><b>Action: <em>harvest</em></b></p>\n                    <p>This is the bee that you just saw.</p>\n                    <img src=\"bees-with-color/bee-B2SM.svg\" width=\"200\">\n                    <p><span class=\"greenText\"><b>Successful harvest!</b></span><br>Your pay has increased by $0.02. Your bonus pay is now $0.46.</p>\n            ","response":0,"trial_type":"html-button-response","trial_index":38,"time_elapsed":566525,"internal_node_id":"0.0-4.0-1.15","subject_id":"60996da21cfc7cc1a24e32c0","study_id":"60edd13110225f80f9f3709b","session_id":"6196c7069d2690d2ed3b6a31","condition":"contingent","relevant_dimensions":["antennae","wings"],"bee_group":{"antennae":"A","wings":"1","pattern":"X","legs":"X"},"bonus":0.980000000000001},{"rt":19483,"stimulus":"bees-with-color/bee-B1DF.svg","response":0,"trial_type":"image-button-response","trial_index":39,"time_elapsed":586009,"internal_node_id":"0.0-4.0-0.16","subject_id":"60996da21cfc7cc1a24e32c0","study_id":"60edd13110225f80f9f3709b","session_id":"6196c7069d2690d2ed3b6a31","condition":"contingent","relevant_dimensions":["antennae","wings"],"bee_group":{"antennae":"A","wings":"1","pattern":"X","legs":"X"},"action":"harvest","summary":"good-harvest","bonus":0.980000000000001},{"rt":3555,"stimulus":"\n                    <p><b>Action: <em>harvest</em></b></p>\n                    <p>This is the bee that you just saw.</p>\n                    <img src=\"bees-with-color/bee-B1DF.svg\" width=\"200\">\n                    <p><span class=\"greenText\"><b>Successful harvest!</b></span><br>Your pay has increased by $0.02. Your bonus pay is now $0.48.</p>\n            ","response":0,"trial_type":"html-button-response","trial_index":40,"time_elapsed":589565,"internal_node_id":"0.0-4.0-1.16","subject_id":"60996da21cfc7cc1a24e32c0","study_id":"60edd13110225f80f9f3709b","session_id":"6196c7069d2690d2ed3b6a31","condition":"contingent","relevant_dimensions":["antennae","wings"],"bee_group":{"antennae":"A","wings":"1","pattern":"X","legs":"X"},"bonus":0.980000000000001},{"rt":6890,"stimulus":"bees-with-color/bee-A1DF.svg","response":0,"trial_type":"image-button-response","trial_index":41,"time_elapsed":596457,"internal_node_id":"0.0-4.0-0.17","subject_id":"60996da21cfc7cc1a24e32c0","study_id":"60edd13110225f80f9f3709b","session_id":"6196c7069d2690d2ed3b6a31","condition":"contingent","relevant_dimensions":["antennae","wings"],"bee_group":{"antennae":"A","wings":"1","pattern":"X","legs":"X"},"action":"harvest","summary":"bad-harvest","bonus":0.980000000000001},{"rt":8967,"stimulus":"\n                    <p><b>Action: <em>harvest</em></b></p>\n                    <p>This is the bee that you just saw.</p>\n                    <img src=\"bees-with-color/bee-A1DF.svg\" width=\"200\">\n                    <p><span class=\"redText\">Bad choice, the bee was angry.</span><br><b>You have been stung!</b><br>Your pay has been decreased by $0.10. Your bonus pay is now $0.38.</p>\n            ","response":0,"trial_type":"html-button-response","trial_index":42,"time_elapsed":605423,"internal_node_id":"0.0-4.0-1.17","subject_id":"60996da21cfc7cc1a24e32c0","study_id":"60edd13110225f80f9f3709b","session_id":"6196c7069d2690d2ed3b6a31","condition":"contingent","relevant_dimensions":["antennae","wings"],"bee_group":{"antennae":"A","wings":"1","pattern":"X","legs":"X"},"bonus":0.980000000000001},{"rt":9183,"stimulus":"bees-with-color/bee-A1SF.svg","response":1,"trial_type":"image-button-response","trial_index":43,"time_elapsed":614608,"internal_node_id":"0.0-4.0-0.18","subject_id":"60996da21cfc7cc1a24e32c0","study_id":"60edd13110225f80f9f3709b","session_id":"6196c7069d2690d2ed3b6a31","condition":"contingent","relevant_dimensions":["antennae","wings"],"bee_group":{"antennae":"A","wings":"1","pattern":"X","legs":"X"},"action":"avoid","summary":"good-avoid","bonus":0.980000000000001},{"rt":706,"stimulus":"\n                    <p><b>Action: <em>avoid</em></b></p>\n                    <p>This is the bee that you just saw.</p>\n                    <img src=\"bees-with-color/bee-A1SF.svg\" width=\"200\">\n                    <p><br>Your bonus pay is unchanged, and remains at $0.38.</p>\n            ","response":0,"trial_type":"html-button-response","trial_index":44,"time_elapsed":615314,"internal_node_id":"0.0-4.0-1.18","subject_id":"60996da21cfc7cc1a24e32c0","study_id":"60edd13110225f80f9f3709b","session_id":"6196c7069d2690d2ed3b6a31","condition":"contingent","relevant_dimensions":["antennae","wings"],"bee_group":{"antennae":"A","wings":"1","pattern":"X","legs":"X"},"bonus":0.980000000000001},{"rt":11480,"stimulus":"bees-with-color/bee-B2DF.svg","response":0,"trial_type":"image-button-response","trial_index":45,"time_elapsed":626796,"internal_node_id":"0.0-4.0-0.19","subject_id":"60996da21cfc7cc1a24e32c0","study_id":"60edd13110225f80f9f3709b","session_id":"6196c7069d2690d2ed3b6a31","condition":"contingent","relevant_dimensions":["antennae","wings"],"bee_group":{"antennae":"A","wings":"1","pattern":"X","legs":"X"},"action":"harvest","summary":"good-harvest","bonus":0.980000000000001},{"rt":802,"stimulus":"\n                    <p><b>Action: <em>harvest</em></b></p>\n                    <p>This is the bee that you just saw.</p>\n                    <img src=\"bees-with-color/bee-B2DF.svg\" width=\"200\">\n                    <p><span class=\"greenText\"><b>Successful harvest!</b></span><br>Your pay has increased by $0.02. Your bonus pay is now $0.40.</p>\n            ","response":0,"trial_type":"html-button-response","trial_index":46,"time_elapsed":627598,"internal_node_id":"0.0-4.0-1.19","subject_id":"60996da21cfc7cc1a24e32c0","study_id":"60edd13110225f80f9f3709b","session_id":"6196c7069d2690d2ed3b6a31","condition":"contingent","relevant_dimensions":["antennae","wings"],"bee_group":{"antennae":"A","wings":"1","pattern":"X","legs":"X"},"bonus":0.980000000000001},{"rt":14158,"stimulus":"bees-with-color/bee-A2SF.svg","response":0,"trial_type":"image-button-response","trial_index":47,"time_elapsed":641757,"internal_node_id":"0.0-4.0-0.20","subject_id":"60996da21cfc7cc1a24e32c0","study_id":"60edd13110225f80f9f3709b","session_id":"6196c7069d2690d2ed3b6a31","condition":"contingent","relevant_dimensions":["antennae","wings"],"bee_group":{"antennae":"A","wings":"1","pattern":"X","legs":"X"},"action":"harvest","summary":"good-harvest","bonus":0.980000000000001},{"rt":2878,"stimulus":"\n                    <p><b>Action: <em>harvest</em></b></p>\n                    <p>This is the bee that you just saw.</p>\n                    <img src=\"bees-with-color/bee-A2SF.svg\" width=\"200\">\n                    <p><span class=\"greenText\"><b>Successful harvest!</b></span><br>Your pay has increased by $0.02. Your bonus pay is now $0.42.</p>\n            ","response":0,"trial_type":"html-button-response","trial_index":48,"time_elapsed":644636,"internal_node_id":"0.0-4.0-1.20","subject_id":"60996da21cfc7cc1a24e32c0","study_id":"60edd13110225f80f9f3709b","session_id":"6196c7069d2690d2ed3b6a31","condition":"contingent","relevant_dimensions":["antennae","wings"],"bee_group":{"antennae":"A","wings":"1","pattern":"X","legs":"X"},"bonus":0.980000000000001},{"rt":8465,"stimulus":"bees-with-color/bee-B2SM.svg","response":0,"trial_type":"image-button-response","trial_index":49,"time_elapsed":653102,"internal_node_id":"0.0-4.0-0.21","subject_id":"60996da21cfc7cc1a24e32c0","study_id":"60edd13110225f80f9f3709b","session_id":"6196c7069d2690d2ed3b6a31","condition":"contingent","relevant_dimensions":["antennae","wings"],"bee_group":{"antennae":"A","wings":"1","pattern":"X","legs":"X"},"action":"harvest","summary":"good-harvest","bonus":0.980000000000001},{"rt":637,"stimulus":"\n                    <p><b>Action: <em>harvest</em></b></p>\n                    <p>This is the bee that you just saw.</p>\n                    <img src=\"bees-with-color/bee-B2SM.svg\" width=\"200\">\n                    <p><span class=\"greenText\"><b>Successful harvest!</b></span><br>Your pay has increased by $0.02. Your bonus pay is now $0.44.</p>\n            ","response":0,"trial_type":"html-button-response","trial_index":50,"time_elapsed":653740,"internal_node_id":"0.0-4.0-1.21","subject_id":"60996da21cfc7cc1a24e32c0","study_id":"60edd13110225f80f9f3709b","session_id":"6196c7069d2690d2ed3b6a31","condition":"contingent","relevant_dimensions":["antennae","wings"],"bee_group":{"antennae":"A","wings":"1","pattern":"X","legs":"X"},"bonus":0.980000000000001},{"rt":11888,"stimulus":"bees-with-color/bee-B2DM.svg","response":0,"trial_type":"image-button-response","trial_index":51,"time_elapsed":665628,"internal_node_id":"0.0-4.0-0.22","subject_id":"60996da21cfc7cc1a24e32c0","study_id":"60edd13110225f80f9f3709b","session_id":"6196c7069d2690d2ed3b6a31","condition":"contingent","relevant_dimensions":["antennae","wings"],"bee_group":{"antennae":"A","wings":"1","pattern":"X","legs":"X"},"action":"harvest","summary":"good-harvest","bonus":0.980000000000001},{"rt":3796,"stimulus":"\n                    <p><b>Action: <em>harvest</em></b></p>\n                    <p>This is the bee that you just saw.</p>\n                    <img src=\"bees-with-color/bee-B2DM.svg\" width=\"200\">\n                    <p><span class=\"greenText\"><b>Successful harvest!</b></span><br>Your pay has increased by $0.02. Your bonus pay is now $0.46.</p>\n            ","response":0,"trial_type":"html-button-response","trial_index":52,"time_elapsed":669425,"internal_node_id":"0.0-4.0-1.22","subject_id":"60996da21cfc7cc1a24e32c0","study_id":"60edd13110225f80f9f3709b","session_id":"6196c7069d2690d2ed3b6a31","condition":"contingent","relevant_dimensions":["antennae","wings"],"bee_group":{"antennae":"A","wings":"1","pattern":"X","legs":"X"},"bonus":0.980000000000001},{"rt":13128,"stimulus":"bees-with-color/bee-A2SM.svg","response":0,"trial_type":"image-button-response","trial_index":53,"time_elapsed":682554,"internal_node_id":"0.0-4.0-0.23","subject_id":"60996da21cfc7cc1a24e32c0","study_id":"60edd13110225f80f9f3709b","session_id":"6196c7069d2690d2ed3b6a31","condition":"contingent","relevant_dimensions":["antennae","wings"],"bee_group":{"antennae":"A","wings":"1","pattern":"X","legs":"X"},"action":"harvest","summary":"good-harvest","bonus":0.980000000000001},{"rt":853,"stimulus":"\n                    <p><b>Action: <em>harvest</em></b></p>\n                    <p>This is the bee that you just saw.</p>\n                    <img src=\"bees-with-color/bee-A2SM.svg\" width=\"200\">\n                    <p><span class=\"greenText\"><b>Successful harvest!</b></span><br>Your pay has increased by $0.02. Your bonus pay is now $0.48.</p>\n            ","response":0,"trial_type":"html-button-response","trial_index":54,"time_elapsed":683409,"internal_node_id":"0.0-4.0-1.23","subject_id":"60996da21cfc7cc1a24e32c0","study_id":"60edd13110225f80f9f3709b","session_id":"6196c7069d2690d2ed3b6a31","condition":"contingent","relevant_dimensions":["antennae","wings"],"bee_group":{"antennae":"A","wings":"1","pattern":"X","legs":"X"},"bonus":0.980000000000001},{"rt":9747,"stimulus":"bees-with-color/bee-B1SF.svg","response":0,"trial_type":"image-button-response","trial_index":55,"time_elapsed":693156,"internal_node_id":"0.0-4.0-0.24","subject_id":"60996da21cfc7cc1a24e32c0","study_id":"60edd13110225f80f9f3709b","session_id":"6196c7069d2690d2ed3b6a31","condition":"contingent","relevant_dimensions":["antennae","wings"],"bee_group":{"antennae":"A","wings":"1","pattern":"X","legs":"X"},"action":"harvest","summary":"good-harvest","bonus":0.980000000000001},{"rt":598,"stimulus":"\n                    <p><b>Action: <em>harvest</em></b></p>\n                    <p>This is the bee that you just saw.</p>\n                    <img src=\"bees-with-color/bee-B1SF.svg\" width=\"200\">\n                    <p><span class=\"greenText\"><b>Successful harvest!</b></span><br>Your pay has increased by $0.02. Your bonus pay is now $0.50.</p>\n            ","response":0,"trial_type":"html-button-response","trial_index":56,"time_elapsed":693755,"internal_node_id":"0.0-4.0-1.24","subject_id":"60996da21cfc7cc1a24e32c0","study_id":"60edd13110225f80f9f3709b","session_id":"6196c7069d2690d2ed3b6a31","condition":"contingent","relevant_dimensions":["antennae","wings"],"bee_group":{"antennae":"A","wings":"1","pattern":"X","legs":"X"},"bonus":0.980000000000001},{"rt":13777,"stimulus":"bees-with-color/bee-A2DM.svg","response":0,"trial_type":"image-button-response","trial_index":57,"time_elapsed":707534,"internal_node_id":"0.0-4.0-0.25","subject_id":"60996da21cfc7cc1a24e32c0","study_id":"60edd13110225f80f9f3709b","session_id":"6196c7069d2690d2ed3b6a31","condition":"contingent","relevant_dimensions":["antennae","wings"],"bee_group":{"antennae":"A","wings":"1","pattern":"X","legs":"X"},"action":"harvest","summary":"good-harvest","bonus":0.980000000000001},{"rt":602,"stimulus":"\n                    <p><b>Action: <em>harvest</em></b></p>\n                    <p>This is the bee that you just saw.</p>\n                    <img src=\"bees-with-color/bee-A2DM.svg\" width=\"200\">\n                    <p><span class=\"greenText\"><b>Successful harvest!</b></span><br>Your pay has increased by $0.02. Your bonus pay is now $0.52.</p>\n            ","response":0,"trial_type":"html-button-response","trial_index":58,"time_elapsed":708135,"internal_node_id":"0.0-4.0-1.25","subject_id":"60996da21cfc7cc1a24e32c0","study_id":"60edd13110225f80f9f3709b","session_id":"6196c7069d2690d2ed3b6a31","condition":"contingent","relevant_dimensions":["antennae","wings"],"bee_group":{"antennae":"A","wings":"1","pattern":"X","legs":"X"},"bonus":0.980000000000001},{"rt":13080,"stimulus":"bees-with-color/bee-B1DM.svg","response":0,"trial_type":"image-button-response","trial_index":59,"time_elapsed":721217,"internal_node_id":"0.0-4.0-0.26","subject_id":"60996da21cfc7cc1a24e32c0","study_id":"60edd13110225f80f9f3709b","session_id":"6196c7069d2690d2ed3b6a31","condition":"contingent","relevant_dimensions":["antennae","wings"],"bee_group":{"antennae":"A","wings":"1","pattern":"X","legs":"X"},"action":"harvest","summary":"good-harvest","bonus":0.980000000000001},{"rt":591,"stimulus":"\n                    <p><b>Action: <em>harvest</em></b></p>\n                    <p>This is the bee that you just saw.</p>\n                    <img src=\"bees-with-color/bee-B1DM.svg\" width=\"200\">\n                    <p><span class=\"greenText\"><b>Successful harvest!</b></span><br>Your pay has increased by $0.02. Your bonus pay is now $0.54.</p>\n            ","response":0,"trial_type":"html-button-response","trial_index":60,"time_elapsed":721809,"internal_node_id":"0.0-4.0-1.26","subject_id":"60996da21cfc7cc1a24e32c0","study_id":"60edd13110225f80f9f3709b","session_id":"6196c7069d2690d2ed3b6a31","condition":"contingent","relevant_dimensions":["antennae","wings"],"bee_group":{"antennae":"A","wings":"1","pattern":"X","legs":"X"},"bonus":0.980000000000001},{"rt":12971,"stimulus":"bees-with-color/bee-B2SF.svg","response":0,"trial_type":"image-button-response","trial_index":61,"time_elapsed":734781,"internal_node_id":"0.0-4.0-0.27","subject_id":"60996da21cfc7cc1a24e32c0","study_id":"60edd13110225f80f9f3709b","session_id":"6196c7069d2690d2ed3b6a31","condition":"contingent","relevant_dimensions":["antennae","wings"],"bee_group":{"antennae":"A","wings":"1","pattern":"X","legs":"X"},"action":"harvest","summary":"good-harvest","bonus":0.980000000000001},{"rt":584,"stimulus":"\n                    <p><b>Action: <em>harvest</em></b></p>\n                    <p>This is the bee that you just saw.</p>\n                    <img src=\"bees-with-color/bee-B2SF.svg\" width=\"200\">\n                    <p><span class=\"greenText\"><b>Successful harvest!</b></span><br>Your pay has increased by $0.02. Your bonus pay is now $0.56.</p>\n            ","response":0,"trial_type":"html-button-response","trial_index":62,"time_elapsed":735366,"internal_node_id":"0.0-4.0-1.27","subject_id":"60996da21cfc7cc1a24e32c0","study_id":"60edd13110225f80f9f3709b","session_id":"6196c7069d2690d2ed3b6a31","condition":"contingent","relevant_dimensions":["antennae","wings"],"bee_group":{"antennae":"A","wings":"1","pattern":"X","legs":"X"},"bonus":0.980000000000001},{"rt":15416,"stimulus":"bees-with-color/bee-A1SM.svg","response":0,"trial_type":"image-button-response","trial_index":63,"time_elapsed":750783,"internal_node_id":"0.0-4.0-0.28","subject_id":"60996da21cfc7cc1a24e32c0","study_id":"60edd13110225f80f9f3709b","session_id":"6196c7069d2690d2ed3b6a31","condition":"contingent","relevant_dimensions":["antennae","wings"],"bee_group":{"antennae":"A","wings":"1","pattern":"X","legs":"X"},"action":"harvest","summary":"bad-harvest","bonus":0.980000000000001},{"rt":8627,"stimulus":"\n                    <p><b>Action: <em>harvest</em></b></p>\n                    <p>This is the bee that you just saw.</p>\n                    <img src=\"bees-with-color/bee-A1SM.svg\" width=\"200\">\n                    <p><span class=\"redText\">Bad choice, the bee was angry.</span><br><b>You have been stung!</b><br>Your pay has been decreased by $0.10. Your bonus pay is now $0.46.</p>\n            ","response":0,"trial_type":"html-button-response","trial_index":64,"time_elapsed":759411,"internal_node_id":"0.0-4.0-1.28","subject_id":"60996da21cfc7cc1a24e32c0","study_id":"60edd13110225f80f9f3709b","session_id":"6196c7069d2690d2ed3b6a31","condition":"contingent","relevant_dimensions":["antennae","wings"],"bee_group":{"antennae":"A","wings":"1","pattern":"X","legs":"X"},"bonus":0.980000000000001},{"rt":11679,"stimulus":"bees-with-color/bee-A2DF.svg","response":0,"trial_type":"image-button-response","trial_index":65,"time_elapsed":771091,"internal_node_id":"0.0-4.0-0.29","subject_id":"60996da21cfc7cc1a24e32c0","study_id":"60edd13110225f80f9f3709b","session_id":"6196c7069d2690d2ed3b6a31","condition":"contingent","relevant_dimensions":["antennae","wings"],"bee_group":{"antennae":"A","wings":"1","pattern":"X","legs":"X"},"action":"harvest","summary":"good-harvest","bonus":0.980000000000001},{"rt":758,"stimulus":"\n                    <p><b>Action: <em>harvest</em></b></p>\n                    <p>This is the bee that you just saw.</p>\n                    <img src=\"bees-with-color/bee-A2DF.svg\" width=\"200\">\n                    <p><span class=\"greenText\"><b>Successful harvest!</b></span><br>Your pay has increased by $0.02. Your bonus pay is now $0.48.</p>\n            ","response":0,"trial_type":"html-button-response","trial_index":66,"time_elapsed":771849,"internal_node_id":"0.0-4.0-1.29","subject_id":"60996da21cfc7cc1a24e32c0","study_id":"60edd13110225f80f9f3709b","session_id":"6196c7069d2690d2ed3b6a31","condition":"contingent","relevant_dimensions":["antennae","wings"],"bee_group":{"antennae":"A","wings":"1","pattern":"X","legs":"X"},"bonus":0.980000000000001},{"rt":7509,"stimulus":"bees-with-color/bee-A1DM.svg","response":1,"trial_type":"image-button-response","trial_index":67,"time_elapsed":779361,"internal_node_id":"0.0-4.0-0.30","subject_id":"60996da21cfc7cc1a24e32c0","study_id":"60edd13110225f80f9f3709b","session_id":"6196c7069d2690d2ed3b6a31","condition":"contingent","relevant_dimensions":["antennae","wings"],"bee_group":{"antennae":"A","wings":"1","pattern":"X","legs":"X"},"action":"avoid","summary":"good-avoid","bonus":0.980000000000001},{"rt":921,"stimulus":"\n                    <p><b>Action: <em>avoid</em></b></p>\n                    <p>This is the bee that you just saw.</p>\n                    <img src=\"bees-with-color/bee-A1DM.svg\" width=\"200\">\n                    <p><br>Your bonus pay is unchanged, and remains at $0.48.</p>\n            ","response":0,"trial_type":"html-button-response","trial_index":68,"time_elapsed":780282,"internal_node_id":"0.0-4.0-1.30","subject_id":"60996da21cfc7cc1a24e32c0","study_id":"60edd13110225f80f9f3709b","session_id":"6196c7069d2690d2ed3b6a31","condition":"contingent","relevant_dimensions":["antennae","wings"],"bee_group":{"antennae":"A","wings":"1","pattern":"X","legs":"X"},"bonus":0.980000000000001},{"rt":13692,"stimulus":"bees-with-color/bee-B1SM.svg","response":0,"trial_type":"image-button-response","trial_index":69,"time_elapsed":793976,"internal_node_id":"0.0-4.0-0.31","subject_id":"60996da21cfc7cc1a24e32c0","study_id":"60edd13110225f80f9f3709b","session_id":"6196c7069d2690d2ed3b6a31","condition":"contingent","relevant_dimensions":["antennae","wings"],"bee_group":{"antennae":"A","wings":"1","pattern":"X","legs":"X"},"action":"harvest","summary":"good-harvest","bonus":0.980000000000001},{"rt":6987,"stimulus":"\n                    <p><b>Action: <em>harvest</em></b></p>\n                    <p>This is the bee that you just saw.</p>\n                    <img src=\"bees-with-color/bee-B1SM.svg\" width=\"200\">\n                    <p><span class=\"greenText\"><b>Successful harvest!</b></span><br>Your pay has increased by $0.02. Your bonus pay is now $0.50.</p>\n            ","response":0,"trial_type":"html-button-response","trial_index":70,"time_elapsed":800963,"internal_node_id":"0.0-4.0-1.31","subject_id":"60996da21cfc7cc1a24e32c0","study_id":"60edd13110225f80f9f3709b","session_id":"6196c7069d2690d2ed3b6a31","condition":"contingent","relevant_dimensions":["antennae","wings"],"bee_group":{"antennae":"A","wings":"1","pattern":"X","legs":"X"},"bonus":0.980000000000001},{"rt":9018,"stimulus":"bees-with-color/bee-A2SM.svg","response":0,"trial_type":"image-button-response","trial_index":71,"time_elapsed":809981,"internal_node_id":"0.0-4.0-0.32","subject_id":"60996da21cfc7cc1a24e32c0","study_id":"60edd13110225f80f9f3709b","session_id":"6196c7069d2690d2ed3b6a31","condition":"contingent","relevant_dimensions":["antennae","wings"],"bee_group":{"antennae":"A","wings":"1","pattern":"X","legs":"X"},"action":"harvest","summary":"good-harvest","bonus":0.980000000000001},{"rt":577,"stimulus":"\n                    <p><b>Action: <em>harvest</em></b></p>\n                    <p>This is the bee that you just saw.</p>\n                    <img src=\"bees-with-color/bee-A2SM.svg\" width=\"200\">\n                    <p><span class=\"greenText\"><b>Successful harvest!</b></span><br>Your pay has increased by $0.02. Your bonus pay is now $0.52.</p>\n            ","response":0,"trial_type":"html-button-response","trial_index":72,"time_elapsed":810559,"internal_node_id":"0.0-4.0-1.32","subject_id":"60996da21cfc7cc1a24e32c0","study_id":"60edd13110225f80f9f3709b","session_id":"6196c7069d2690d2ed3b6a31","condition":"contingent","relevant_dimensions":["antennae","wings"],"bee_group":{"antennae":"A","wings":"1","pattern":"X","legs":"X"},"bonus":0.980000000000001},{"rt":8461,"stimulus":"bees-with-color/bee-A1DM.svg","response":1,"trial_type":"image-button-response","trial_index":73,"time_elapsed":819021,"internal_node_id":"0.0-4.0-0.33","subject_id":"60996da21cfc7cc1a24e32c0","study_id":"60edd13110225f80f9f3709b","session_id":"6196c7069d2690d2ed3b6a31","condition":"contingent","relevant_dimensions":["antennae","wings"],"bee_group":{"antennae":"A","wings":"1","pattern":"X","legs":"X"},"action":"avoid","summary":"good-avoid","bonus":0.980000000000001},{"rt":597,"stimulus":"\n                    <p><b>Action: <em>avoid</em></b></p>\n                    <p>This is the bee that you just saw.</p>\n                    <img src=\"bees-with-color/bee-A1DM.svg\" width=\"200\">\n                    <p><br>Your bonus pay is unchanged, and remains at $0.52.</p>\n            ","response":0,"trial_type":"html-button-response","trial_index":74,"time_elapsed":819619,"internal_node_id":"0.0-4.0-1.33","subject_id":"60996da21cfc7cc1a24e32c0","study_id":"60edd13110225f80f9f3709b","session_id":"6196c7069d2690d2ed3b6a31","condition":"contingent","relevant_dimensions":["antennae","wings"],"bee_group":{"antennae":"A","wings":"1","pattern":"X","legs":"X"},"bonus":0.980000000000001},{"rt":6394,"stimulus":"bees-with-color/bee-B1DF.svg","response":0,"trial_type":"image-button-response","trial_index":75,"time_elapsed":826014,"internal_node_id":"0.0-4.0-0.34","subject_id":"60996da21cfc7cc1a24e32c0","study_id":"60edd13110225f80f9f3709b","session_id":"6196c7069d2690d2ed3b6a31","condition":"contingent","relevant_dimensions":["antennae","wings"],"bee_group":{"antennae":"A","wings":"1","pattern":"X","legs":"X"},"action":"harvest","summary":"good-harvest","bonus":0.980000000000001},{"rt":543,"stimulus":"\n                    <p><b>Action: <em>harvest</em></b></p>\n                    <p>This is the bee that you just saw.</p>\n                    <img src=\"bees-with-color/bee-B1DF.svg\" width=\"200\">\n                    <p><span class=\"greenText\"><b>Successful harvest!</b></span><br>Your pay has increased by $0.02. Your bonus pay is now $0.54.</p>\n            ","response":0,"trial_type":"html-button-response","trial_index":76,"time_elapsed":826558,"internal_node_id":"0.0-4.0-1.34","subject_id":"60996da21cfc7cc1a24e32c0","study_id":"60edd13110225f80f9f3709b","session_id":"6196c7069d2690d2ed3b6a31","condition":"contingent","relevant_dimensions":["antennae","wings"],"bee_group":{"antennae":"A","wings":"1","pattern":"X","legs":"X"},"bonus":0.980000000000001},{"rt":7685,"stimulus":"bees-with-color/bee-B2DF.svg","response":0,"trial_type":"image-button-response","trial_index":77,"time_elapsed":834244,"internal_node_id":"0.0-4.0-0.35","subject_id":"60996da21cfc7cc1a24e32c0","study_id":"60edd13110225f80f9f3709b","session_id":"6196c7069d2690d2ed3b6a31","condition":"contingent","relevant_dimensions":["antennae","wings"],"bee_group":{"antennae":"A","wings":"1","pattern":"X","legs":"X"},"action":"harvest","summary":"good-harvest","bonus":0.980000000000001},{"rt":659,"stimulus":"\n                    <p><b>Action: <em>harvest</em></b></p>\n                    <p>This is the bee that you just saw.</p>\n                    <img src=\"bees-with-color/bee-B2DF.svg\" width=\"200\">\n                    <p><span class=\"greenText\"><b>Successful harvest!</b></span><br>Your pay has increased by $0.02. Your bonus pay is now $0.56.</p>\n            ","response":0,"trial_type":"html-button-response","trial_index":78,"time_elapsed":834905,"internal_node_id":"0.0-4.0-1.35","subject_id":"60996da21cfc7cc1a24e32c0","study_id":"60edd13110225f80f9f3709b","session_id":"6196c7069d2690d2ed3b6a31","condition":"contingent","relevant_dimensions":["antennae","wings"],"bee_group":{"antennae":"A","wings":"1","pattern":"X","legs":"X"},"bonus":0.980000000000001},{"rt":16097,"stimulus":"bees-with-color/bee-A2DF.svg","response":0,"trial_type":"image-button-response","trial_index":79,"time_elapsed":851002,"internal_node_id":"0.0-4.0-0.36","subject_id":"60996da21cfc7cc1a24e32c0","study_id":"60edd13110225f80f9f3709b","session_id":"6196c7069d2690d2ed3b6a31","condition":"contingent","relevant_dimensions":["antennae","wings"],"bee_group":{"antennae":"A","wings":"1","pattern":"X","legs":"X"},"action":"harvest","summary":"good-harvest","bonus":0.980000000000001},{"rt":616,"stimulus":"\n                    <p><b>Action: <em>harvest</em></b></p>\n                    <p>This is the bee that you just saw.</p>\n                    <img src=\"bees-with-color/bee-A2DF.svg\" width=\"200\">\n                    <p><span class=\"greenText\"><b>Successful harvest!</b></span><br>Your pay has increased by $0.02. Your bonus pay is now $0.58.</p>\n            ","response":0,"trial_type":"html-button-response","trial_index":80,"time_elapsed":851619,"internal_node_id":"0.0-4.0-1.36","subject_id":"60996da21cfc7cc1a24e32c0","study_id":"60edd13110225f80f9f3709b","session_id":"6196c7069d2690d2ed3b6a31","condition":"contingent","relevant_dimensions":["antennae","wings"],"bee_group":{"antennae":"A","wings":"1","pattern":"X","legs":"X"},"bonus":0.980000000000001},{"rt":7826,"stimulus":"bees-with-color/bee-B1SM.svg","response":0,"trial_type":"image-button-response","trial_index":81,"time_elapsed":859447,"internal_node_id":"0.0-4.0-0.37","subject_id":"60996da21cfc7cc1a24e32c0","study_id":"60edd13110225f80f9f3709b","session_id":"6196c7069d2690d2ed3b6a31","condition":"contingent","relevant_dimensions":["antennae","wings"],"bee_group":{"antennae":"A","wings":"1","pattern":"X","legs":"X"},"action":"harvest","summary":"good-harvest","bonus":0.980000000000001},{"rt":658,"stimulus":"\n                    <p><b>Action: <em>harvest</em></b></p>\n                    <p>This is the bee that you just saw.</p>\n                    <img src=\"bees-with-color/bee-B1SM.svg\" width=\"200\">\n                    <p><span class=\"greenText\"><b>Successful harvest!</b></span><br>Your pay has increased by $0.02. Your bonus pay is now $0.60.</p>\n            ","response":0,"trial_type":"html-button-response","trial_index":82,"time_elapsed":860104,"internal_node_id":"0.0-4.0-1.37","subject_id":"60996da21cfc7cc1a24e32c0","study_id":"60edd13110225f80f9f3709b","session_id":"6196c7069d2690d2ed3b6a31","condition":"contingent","relevant_dimensions":["antennae","wings"],"bee_group":{"antennae":"A","wings":"1","pattern":"X","legs":"X"},"bonus":0.980000000000001},{"rt":14068,"stimulus":"bees-with-color/bee-A1SF.svg","response":1,"trial_type":"image-button-response","trial_index":83,"time_elapsed":874175,"internal_node_id":"0.0-4.0-0.38","subject_id":"60996da21cfc7cc1a24e32c0","study_id":"60edd13110225f80f9f3709b","session_id":"6196c7069d2690d2ed3b6a31","condition":"contingent","relevant_dimensions":["antennae","wings"],"bee_group":{"antennae":"A","wings":"1","pattern":"X","legs":"X"},"action":"avoid","summary":"good-avoid","bonus":0.980000000000001},{"rt":855,"stimulus":"\n                    <p><b>Action: <em>avoid</em></b></p>\n                    <p>This is the bee that you just saw.</p>\n                    <img src=\"bees-with-color/bee-A1SF.svg\" width=\"200\">\n                    <p><br>Your bonus pay is unchanged, and remains at $0.60.</p>\n            ","response":0,"trial_type":"html-button-response","trial_index":84,"time_elapsed":875030,"internal_node_id":"0.0-4.0-1.38","subject_id":"60996da21cfc7cc1a24e32c0","study_id":"60edd13110225f80f9f3709b","session_id":"6196c7069d2690d2ed3b6a31","condition":"contingent","relevant_dimensions":["antennae","wings"],"bee_group":{"antennae":"A","wings":"1","pattern":"X","legs":"X"},"bonus":0.980000000000001},{"rt":5256,"stimulus":"bees-with-color/bee-A2SF.svg","response":0,"trial_type":"image-button-response","trial_index":85,"time_elapsed":880288,"internal_node_id":"0.0-4.0-0.39","subject_id":"60996da21cfc7cc1a24e32c0","study_id":"60edd13110225f80f9f3709b","session_id":"6196c7069d2690d2ed3b6a31","condition":"contingent","relevant_dimensions":["antennae","wings"],"bee_group":{"antennae":"A","wings":"1","pattern":"X","legs":"X"},"action":"harvest","summary":"good-harvest","bonus":0.980000000000001},{"rt":981,"stimulus":"\n                    <p><b>Action: <em>harvest</em></b></p>\n                    <p>This is the bee that you just saw.</p>\n                    <img src=\"bees-with-color/bee-A2SF.svg\" width=\"200\">\n                    <p><span class=\"greenText\"><b>Successful harvest!</b></span><br>Your pay has increased by $0.02. Your bonus pay is now $0.62.</p>\n            ","response":0,"trial_type":"html-button-response","trial_index":86,"time_elapsed":881270,"internal_node_id":"0.0-4.0-1.39","subject_id":"60996da21cfc7cc1a24e32c0","study_id":"60edd13110225f80f9f3709b","session_id":"6196c7069d2690d2ed3b6a31","condition":"contingent","relevant_dimensions":["antennae","wings"],"bee_group":{"antennae":"A","wings":"1","pattern":"X","legs":"X"},"bonus":0.980000000000001},{"rt":7834,"stimulus":"bees-with-color/bee-B2SM.svg","response":0,"trial_type":"image-button-response","trial_index":87,"time_elapsed":889103,"internal_node_id":"0.0-4.0-0.40","subject_id":"60996da21cfc7cc1a24e32c0","study_id":"60edd13110225f80f9f3709b","session_id":"6196c7069d2690d2ed3b6a31","condition":"contingent","relevant_dimensions":["antennae","wings"],"bee_group":{"antennae":"A","wings":"1","pattern":"X","legs":"X"},"action":"harvest","summary":"good-harvest","bonus":0.980000000000001},{"rt":590,"stimulus":"\n                    <p><b>Action: <em>harvest</em></b></p>\n                    <p>This is the bee that you just saw.</p>\n                    <img src=\"bees-with-color/bee-B2SM.svg\" width=\"200\">\n                    <p><span class=\"greenText\"><b>Successful harvest!</b></span><br>Your pay has increased by $0.02. Your bonus pay is now $0.64.</p>\n            ","response":0,"trial_type":"html-button-response","trial_index":88,"time_elapsed":889695,"internal_node_id":"0.0-4.0-1.40","subject_id":"60996da21cfc7cc1a24e32c0","study_id":"60edd13110225f80f9f3709b","session_id":"6196c7069d2690d2ed3b6a31","condition":"contingent","relevant_dimensions":["antennae","wings"],"bee_group":{"antennae":"A","wings":"1","pattern":"X","legs":"X"},"bonus":0.980000000000001},{"rt":7089,"stimulus":"bees-with-color/bee-B2DM.svg","response":0,"trial_type":"image-button-response","trial_index":89,"time_elapsed":896785,"internal_node_id":"0.0-4.0-0.41","subject_id":"60996da21cfc7cc1a24e32c0","study_id":"60edd13110225f80f9f3709b","session_id":"6196c7069d2690d2ed3b6a31","condition":"contingent","relevant_dimensions":["antennae","wings"],"bee_group":{"antennae":"A","wings":"1","pattern":"X","legs":"X"},"action":"harvest","summary":"good-harvest","bonus":0.980000000000001},{"rt":519,"stimulus":"\n                    <p><b>Action: <em>harvest</em></b></p>\n                    <p>This is the bee that you just saw.</p>\n                    <img src=\"bees-with-color/bee-B2DM.svg\" width=\"200\">\n                    <p><span class=\"greenText\"><b>Successful harvest!</b></span><br>Your pay has increased by $0.02. Your bonus pay is now $0.66.</p>\n            ","response":0,"trial_type":"html-button-response","trial_index":90,"time_elapsed":897304,"internal_node_id":"0.0-4.0-1.41","subject_id":"60996da21cfc7cc1a24e32c0","study_id":"60edd13110225f80f9f3709b","session_id":"6196c7069d2690d2ed3b6a31","condition":"contingent","relevant_dimensions":["antennae","wings"],"bee_group":{"antennae":"A","wings":"1","pattern":"X","legs":"X"},"bonus":0.980000000000001},{"rt":6607,"stimulus":"bees-with-color/bee-A2DM.svg","response":0,"trial_type":"image-button-response","trial_index":91,"time_elapsed":903912,"internal_node_id":"0.0-4.0-0.42","subject_id":"60996da21cfc7cc1a24e32c0","study_id":"60edd13110225f80f9f3709b","session_id":"6196c7069d2690d2ed3b6a31","condition":"contingent","relevant_dimensions":["antennae","wings"],"bee_group":{"antennae":"A","wings":"1","pattern":"X","legs":"X"},"action":"harvest","summary":"good-harvest","bonus":0.980000000000001},{"rt":532,"stimulus":"\n                    <p><b>Action: <em>harvest</em></b></p>\n                    <p>This is the bee that you just saw.</p>\n                    <img src=\"bees-with-color/bee-A2DM.svg\" width=\"200\">\n                    <p><span class=\"greenText\"><b>Successful harvest!</b></span><br>Your pay has increased by $0.02. Your bonus pay is now $0.68.</p>\n            ","response":0,"trial_type":"html-button-response","trial_index":92,"time_elapsed":904445,"internal_node_id":"0.0-4.0-1.42","subject_id":"60996da21cfc7cc1a24e32c0","study_id":"60edd13110225f80f9f3709b","session_id":"6196c7069d2690d2ed3b6a31","condition":"contingent","relevant_dimensions":["antennae","wings"],"bee_group":{"antennae":"A","wings":"1","pattern":"X","legs":"X"},"bonus":0.980000000000001},{"rt":9820,"stimulus":"bees-with-color/bee-B2SF.svg","response":0,"trial_type":"image-button-response","trial_index":93,"time_elapsed":914266,"internal_node_id":"0.0-4.0-0.43","subject_id":"60996da21cfc7cc1a24e32c0","study_id":"60edd13110225f80f9f3709b","session_id":"6196c7069d2690d2ed3b6a31","condition":"contingent","relevant_dimensions":["antennae","wings"],"bee_group":{"antennae":"A","wings":"1","pattern":"X","legs":"X"},"action":"harvest","summary":"good-harvest","bonus":0.980000000000001},{"rt":577,"stimulus":"\n                    <p><b>Action: <em>harvest</em></b></p>\n                    <p>This is the bee that you just saw.</p>\n                    <img src=\"bees-with-color/bee-B2SF.svg\" width=\"200\">\n                    <p><span class=\"greenText\"><b>Successful harvest!</b></span><br>Your pay has increased by $0.02. Your bonus pay is now $0.70.</p>\n            ","response":0,"trial_type":"html-button-response","trial_index":94,"time_elapsed":914843,"internal_node_id":"0.0-4.0-1.43","subject_id":"60996da21cfc7cc1a24e32c0","study_id":"60edd13110225f80f9f3709b","session_id":"6196c7069d2690d2ed3b6a31","condition":"contingent","relevant_dimensions":["antennae","wings"],"bee_group":{"antennae":"A","wings":"1","pattern":"X","legs":"X"},"bonus":0.980000000000001},{"rt":24826,"stimulus":"bees-with-color/bee-A1DF.svg","response":1,"trial_type":"image-button-response","trial_index":95,"time_elapsed":939669,"internal_node_id":"0.0-4.0-0.44","subject_id":"60996da21cfc7cc1a24e32c0","study_id":"60edd13110225f80f9f3709b","session_id":"6196c7069d2690d2ed3b6a31","condition":"contingent","relevant_dimensions":["antennae","wings"],"bee_group":{"antennae":"A","wings":"1","pattern":"X","legs":"X"},"action":"avoid","summary":"good-avoid","bonus":0.980000000000001},{"rt":591,"stimulus":"\n                    <p><b>Action: <em>avoid</em></b></p>\n                    <p>This is the bee that you just saw.</p>\n                    <img src=\"bees-with-color/bee-A1DF.svg\" width=\"200\">\n                    <p><br>Your bonus pay is unchanged, and remains at $0.70.</p>\n            ","response":0,"trial_type":"html-button-response","trial_index":96,"time_elapsed":940263,"internal_node_id":"0.0-4.0-1.44","subject_id":"60996da21cfc7cc1a24e32c0","study_id":"60edd13110225f80f9f3709b","session_id":"6196c7069d2690d2ed3b6a31","condition":"contingent","relevant_dimensions":["antennae","wings"],"bee_group":{"antennae":"A","wings":"1","pattern":"X","legs":"X"},"bonus":0.980000000000001},{"rt":6741,"stimulus":"bees-with-color/bee-B1SF.svg","response":0,"trial_type":"image-button-response","trial_index":97,"time_elapsed":947005,"internal_node_id":"0.0-4.0-0.45","subject_id":"60996da21cfc7cc1a24e32c0","study_id":"60edd13110225f80f9f3709b","session_id":"6196c7069d2690d2ed3b6a31","condition":"contingent","relevant_dimensions":["antennae","wings"],"bee_group":{"antennae":"A","wings":"1","pattern":"X","legs":"X"},"action":"harvest","summary":"good-harvest","bonus":0.980000000000001},{"rt":541,"stimulus":"\n                    <p><b>Action: <em>harvest</em></b></p>\n                    <p>This is the bee that you just saw.</p>\n                    <img src=\"bees-with-color/bee-B1SF.svg\" width=\"200\">\n                    <p><span class=\"greenText\"><b>Successful harvest!</b></span><br>Your pay has increased by $0.02. Your bonus pay is now $0.72.</p>\n            ","response":0,"trial_type":"html-button-response","trial_index":98,"time_elapsed":947548,"internal_node_id":"0.0-4.0-1.45","subject_id":"60996da21cfc7cc1a24e32c0","study_id":"60edd13110225f80f9f3709b","session_id":"6196c7069d2690d2ed3b6a31","condition":"contingent","relevant_dimensions":["antennae","wings"],"bee_group":{"antennae":"A","wings":"1","pattern":"X","legs":"X"},"bonus":0.980000000000001},{"rt":7521,"stimulus":"bees-with-color/bee-A1SM.svg","response":1,"trial_type":"image-button-response","trial_index":99,"time_elapsed":955070,"internal_node_id":"0.0-4.0-0.46","subject_id":"60996da21cfc7cc1a24e32c0","study_id":"60edd13110225f80f9f3709b","session_id":"6196c7069d2690d2ed3b6a31","condition":"contingent","relevant_dimensions":["antennae","wings"],"bee_group":{"antennae":"A","wings":"1","pattern":"X","legs":"X"},"action":"avoid","summary":"good-avoid","bonus":0.980000000000001},{"rt":633,"stimulus":"\n                    <p><b>Action: <em>avoid</em></b></p>\n                    <p>This is the bee that you just saw.</p>\n                    <img src=\"bees-with-color/bee-A1SM.svg\" width=\"200\">\n                    <p><br>Your bonus pay is unchanged, and remains at $0.72.</p>\n            ","response":0,"trial_type":"html-button-response","trial_index":100,"time_elapsed":955705,"internal_node_id":"0.0-4.0-1.46","subject_id":"60996da21cfc7cc1a24e32c0","study_id":"60edd13110225f80f9f3709b","session_id":"6196c7069d2690d2ed3b6a31","condition":"contingent","relevant_dimensions":["antennae","wings"],"bee_group":{"antennae":"A","wings":"1","pattern":"X","legs":"X"},"bonus":0.980000000000001},{"rt":4955,"stimulus":"bees-with-color/bee-B1DM.svg","response":0,"trial_type":"image-button-response","trial_index":101,"time_elapsed":960661,"internal_node_id":"0.0-4.0-0.47","subject_id":"60996da21cfc7cc1a24e32c0","study_id":"60edd13110225f80f9f3709b","session_id":"6196c7069d2690d2ed3b6a31","condition":"contingent","relevant_dimensions":["antennae","wings"],"bee_group":{"antennae":"A","wings":"1","pattern":"X","legs":"X"},"action":"harvest","summary":"good-harvest","bonus":0.980000000000001},{"rt":500,"stimulus":"\n                    <p><b>Action: <em>harvest</em></b></p>\n                    <p>This is the bee that you just saw.</p>\n                    <img src=\"bees-with-color/bee-B1DM.svg\" width=\"200\">\n                    <p><span class=\"greenText\"><b>Successful harvest!</b></span><br>Your pay has increased by $0.02. Your bonus pay is now $0.74.</p>\n            ","response":0,"trial_type":"html-button-response","trial_index":102,"time_elapsed":961161,"internal_node_id":"0.0-4.0-1.47","subject_id":"60996da21cfc7cc1a24e32c0","study_id":"60edd13110225f80f9f3709b","session_id":"6196c7069d2690d2ed3b6a31","condition":"contingent","relevant_dimensions":["antennae","wings"],"bee_group":{"antennae":"A","wings":"1","pattern":"X","legs":"X"},"bonus":0.980000000000001},{"rt":5666,"stimulus":"bees-with-color/bee-B1DF.svg","response":0,"trial_type":"image-button-response","trial_index":103,"time_elapsed":966829,"internal_node_id":"0.0-4.0-0.48","subject_id":"60996da21cfc7cc1a24e32c0","study_id":"60edd13110225f80f9f3709b","session_id":"6196c7069d2690d2ed3b6a31","condition":"contingent","relevant_dimensions":["antennae","wings"],"bee_group":{"antennae":"A","wings":"1","pattern":"X","legs":"X"},"action":"harvest","summary":"good-harvest","bonus":0.980000000000001},{"rt":478,"stimulus":"\n                    <p><b>Action: <em>harvest</em></b></p>\n                    <p>This is the bee that you just saw.</p>\n                    <img src=\"bees-with-color/bee-B1DF.svg\" width=\"200\">\n                    <p><span class=\"greenText\"><b>Successful harvest!</b></span><br>Your pay has increased by $0.02. Your bonus pay is now $0.76.</p>\n            ","response":0,"trial_type":"html-button-response","trial_index":104,"time_elapsed":967308,"internal_node_id":"0.0-4.0-1.48","subject_id":"60996da21cfc7cc1a24e32c0","study_id":"60edd13110225f80f9f3709b","session_id":"6196c7069d2690d2ed3b6a31","condition":"contingent","relevant_dimensions":["antennae","wings"],"bee_group":{"antennae":"A","wings":"1","pattern":"X","legs":"X"},"bonus":0.980000000000001},{"rt":8165,"stimulus":"bees-with-color/bee-B2DF.svg","response":0,"trial_type":"image-button-response","trial_index":105,"time_elapsed":975473,"internal_node_id":"0.0-4.0-0.49","subject_id":"60996da21cfc7cc1a24e32c0","study_id":"60edd13110225f80f9f3709b","session_id":"6196c7069d2690d2ed3b6a31","condition":"contingent","relevant_dimensions":["antennae","wings"],"bee_group":{"antennae":"A","wings":"1","pattern":"X","legs":"X"},"action":"harvest","summary":"good-harvest","bonus":0.980000000000001},{"rt":495,"stimulus":"\n                    <p><b>Action: <em>harvest</em></b></p>\n                    <p>This is the bee that you just saw.</p>\n                    <img src=\"bees-with-color/bee-B2DF.svg\" width=\"200\">\n                    <p><span class=\"greenText\"><b>Successful harvest!</b></span><br>Your pay has increased by $0.02. Your bonus pay is now $0.78.</p>\n            ","response":0,"trial_type":"html-button-response","trial_index":106,"time_elapsed":975970,"internal_node_id":"0.0-4.0-1.49","subject_id":"60996da21cfc7cc1a24e32c0","study_id":"60edd13110225f80f9f3709b","session_id":"6196c7069d2690d2ed3b6a31","condition":"contingent","relevant_dimensions":["antennae","wings"],"bee_group":{"antennae":"A","wings":"1","pattern":"X","legs":"X"},"bonus":0.980000000000001},{"rt":7132,"stimulus":"bees-with-color/bee-A2SF.svg","response":0,"trial_type":"image-button-response","trial_index":107,"time_elapsed":983104,"internal_node_id":"0.0-4.0-0.50","subject_id":"60996da21cfc7cc1a24e32c0","study_id":"60edd13110225f80f9f3709b","session_id":"6196c7069d2690d2ed3b6a31","condition":"contingent","relevant_dimensions":["antennae","wings"],"bee_group":{"antennae":"A","wings":"1","pattern":"X","legs":"X"},"action":"harvest","summary":"good-harvest","bonus":0.980000000000001},{"rt":563,"stimulus":"\n                    <p><b>Action: <em>harvest</em></b></p>\n                    <p>This is the bee that you just saw.</p>\n                    <img src=\"bees-with-color/bee-A2SF.svg\" width=\"200\">\n                    <p><span class=\"greenText\"><b>Successful harvest!</b></span><br>Your pay has increased by $0.02. Your bonus pay is now $0.80.</p>\n            ","response":0,"trial_type":"html-button-response","trial_index":108,"time_elapsed":983667,"internal_node_id":"0.0-4.0-1.50","subject_id":"60996da21cfc7cc1a24e32c0","study_id":"60edd13110225f80f9f3709b","session_id":"6196c7069d2690d2ed3b6a31","condition":"contingent","relevant_dimensions":["antennae","wings"],"bee_group":{"antennae":"A","wings":"1","pattern":"X","legs":"X"},"bonus":0.980000000000001},{"rt":5071,"stimulus":"bees-with-color/bee-B2SF.svg","response":0,"trial_type":"image-button-response","trial_index":109,"time_elapsed":988740,"internal_node_id":"0.0-4.0-0.51","subject_id":"60996da21cfc7cc1a24e32c0","study_id":"60edd13110225f80f9f3709b","session_id":"6196c7069d2690d2ed3b6a31","condition":"contingent","relevant_dimensions":["antennae","wings"],"bee_group":{"antennae":"A","wings":"1","pattern":"X","legs":"X"},"action":"harvest","summary":"good-harvest","bonus":0.980000000000001},{"rt":415,"stimulus":"\n                    <p><b>Action: <em>harvest</em></b></p>\n                    <p>This is the bee that you just saw.</p>\n                    <img src=\"bees-with-color/bee-B2SF.svg\" width=\"200\">\n                    <p><span class=\"greenText\"><b>Successful harvest!</b></span><br>Your pay has increased by $0.02. Your bonus pay is now $0.82.</p>\n            ","response":0,"trial_type":"html-button-response","trial_index":110,"time_elapsed":989157,"internal_node_id":"0.0-4.0-1.51","subject_id":"60996da21cfc7cc1a24e32c0","study_id":"60edd13110225f80f9f3709b","session_id":"6196c7069d2690d2ed3b6a31","condition":"contingent","relevant_dimensions":["antennae","wings"],"bee_group":{"antennae":"A","wings":"1","pattern":"X","legs":"X"},"bonus":0.980000000000001},{"rt":4469,"stimulus":"bees-with-color/bee-A2SM.svg","response":0,"trial_type":"image-button-response","trial_index":111,"time_elapsed":993625,"internal_node_id":"0.0-4.0-0.52","subject_id":"60996da21cfc7cc1a24e32c0","study_id":"60edd13110225f80f9f3709b","session_id":"6196c7069d2690d2ed3b6a31","condition":"contingent","relevant_dimensions":["antennae","wings"],"bee_group":{"antennae":"A","wings":"1","pattern":"X","legs":"X"},"action":"harvest","summary":"good-harvest","bonus":0.980000000000001},{"rt":563,"stimulus":"\n                    <p><b>Action: <em>harvest</em></b></p>\n                    <p>This is the bee that you just saw.</p>\n                    <img src=\"bees-with-color/bee-A2SM.svg\" width=\"200\">\n                    <p><span class=\"greenText\"><b>Successful harvest!</b></span><br>Your pay has increased by $0.02. Your bonus pay is now $0.84.</p>\n            ","response":0,"trial_type":"html-button-response","trial_index":112,"time_elapsed":994189,"internal_node_id":"0.0-4.0-1.52","subject_id":"60996da21cfc7cc1a24e32c0","study_id":"60edd13110225f80f9f3709b","session_id":"6196c7069d2690d2ed3b6a31","condition":"contingent","relevant_dimensions":["antennae","wings"],"bee_group":{"antennae":"A","wings":"1","pattern":"X","legs":"X"},"bonus":0.980000000000001},{"rt":5630,"stimulus":"bees-with-color/bee-A1SM.svg","response":1,"trial_type":"image-button-response","trial_index":113,"time_elapsed":999820,"internal_node_id":"0.0-4.0-0.53","subject_id":"60996da21cfc7cc1a24e32c0","study_id":"60edd13110225f80f9f3709b","session_id":"6196c7069d2690d2ed3b6a31","condition":"contingent","relevant_dimensions":["antennae","wings"],"bee_group":{"antennae":"A","wings":"1","pattern":"X","legs":"X"},"action":"avoid","summary":"good-avoid","bonus":0.980000000000001},{"rt":477,"stimulus":"\n                    <p><b>Action: <em>avoid</em></b></p>\n                    <p>This is the bee that you just saw.</p>\n                    <img src=\"bees-with-color/bee-A1SM.svg\" width=\"200\">\n                    <p><br>Your bonus pay is unchanged, and remains at $0.84.</p>\n            ","response":0,"trial_type":"html-button-response","trial_index":114,"time_elapsed":1000298,"internal_node_id":"0.0-4.0-1.53","subject_id":"60996da21cfc7cc1a24e32c0","study_id":"60edd13110225f80f9f3709b","session_id":"6196c7069d2690d2ed3b6a31","condition":"contingent","relevant_dimensions":["antennae","wings"],"bee_group":{"antennae":"A","wings":"1","pattern":"X","legs":"X"},"bonus":0.980000000000001},{"rt":7753,"stimulus":"bees-with-color/bee-A1DF.svg","response":1,"trial_type":"image-button-response","trial_index":115,"time_elapsed":1008051,"internal_node_id":"0.0-4.0-0.54","subject_id":"60996da21cfc7cc1a24e32c0","study_id":"60edd13110225f80f9f3709b","session_id":"6196c7069d2690d2ed3b6a31","condition":"contingent","relevant_dimensions":["antennae","wings"],"bee_group":{"antennae":"A","wings":"1","pattern":"X","legs":"X"},"action":"avoid","summary":"good-avoid","bonus":0.980000000000001},{"rt":601,"stimulus":"\n                    <p><b>Action: <em>avoid</em></b></p>\n                    <p>This is the bee that you just saw.</p>\n                    <img src=\"bees-with-color/bee-A1DF.svg\" width=\"200\">\n                    <p><br>Your bonus pay is unchanged, and remains at $0.84.</p>\n            ","response":0,"trial_type":"html-button-response","trial_index":116,"time_elapsed":1008653,"internal_node_id":"0.0-4.0-1.54","subject_id":"60996da21cfc7cc1a24e32c0","study_id":"60edd13110225f80f9f3709b","session_id":"6196c7069d2690d2ed3b6a31","condition":"contingent","relevant_dimensions":["antennae","wings"],"bee_group":{"antennae":"A","wings":"1","pattern":"X","legs":"X"},"bonus":0.980000000000001},{"rt":6471,"stimulus":"bees-with-color/bee-B1SM.svg","response":0,"trial_type":"image-button-response","trial_index":117,"time_elapsed":1015125,"internal_node_id":"0.0-4.0-0.55","subject_id":"60996da21cfc7cc1a24e32c0","study_id":"60edd13110225f80f9f3709b","session_id":"6196c7069d2690d2ed3b6a31","condition":"contingent","relevant_dimensions":["antennae","wings"],"bee_group":{"antennae":"A","wings":"1","pattern":"X","legs":"X"},"action":"harvest","summary":"good-harvest","bonus":0.980000000000001},{"rt":447,"stimulus":"\n                    <p><b>Action: <em>harvest</em></b></p>\n                    <p>This is the bee that you just saw.</p>\n                    <img src=\"bees-with-color/bee-B1SM.svg\" width=\"200\">\n                    <p><span class=\"greenText\"><b>Successful harvest!</b></span><br>Your pay has increased by $0.02. Your bonus pay is now $0.86.</p>\n            ","response":0,"trial_type":"html-button-response","trial_index":118,"time_elapsed":1015574,"internal_node_id":"0.0-4.0-1.55","subject_id":"60996da21cfc7cc1a24e32c0","study_id":"60edd13110225f80f9f3709b","session_id":"6196c7069d2690d2ed3b6a31","condition":"contingent","relevant_dimensions":["antennae","wings"],"bee_group":{"antennae":"A","wings":"1","pattern":"X","legs":"X"},"bonus":0.980000000000001},{"rt":8737,"stimulus":"bees-with-color/bee-A1SF.svg","response":1,"trial_type":"image-button-response","trial_index":119,"time_elapsed":1024313,"internal_node_id":"0.0-4.0-0.56","subject_id":"60996da21cfc7cc1a24e32c0","study_id":"60edd13110225f80f9f3709b","session_id":"6196c7069d2690d2ed3b6a31","condition":"contingent","relevant_dimensions":["antennae","wings"],"bee_group":{"antennae":"A","wings":"1","pattern":"X","legs":"X"},"action":"avoid","summary":"good-avoid","bonus":0.980000000000001},{"rt":516,"stimulus":"\n                    <p><b>Action: <em>avoid</em></b></p>\n                    <p>This is the bee that you just saw.</p>\n                    <img src=\"bees-with-color/bee-A1SF.svg\" width=\"200\">\n                    <p><br>Your bonus pay is unchanged, and remains at $0.86.</p>\n            ","response":0,"trial_type":"html-button-response","trial_index":120,"time_elapsed":1024829,"internal_node_id":"0.0-4.0-1.56","subject_id":"60996da21cfc7cc1a24e32c0","study_id":"60edd13110225f80f9f3709b","session_id":"6196c7069d2690d2ed3b6a31","condition":"contingent","relevant_dimensions":["antennae","wings"],"bee_group":{"antennae":"A","wings":"1","pattern":"X","legs":"X"},"bonus":0.980000000000001},{"rt":6776,"stimulus":"bees-with-color/bee-A2DM.svg","response":0,"trial_type":"image-button-response","trial_index":121,"time_elapsed":1031606,"internal_node_id":"0.0-4.0-0.57","subject_id":"60996da21cfc7cc1a24e32c0","study_id":"60edd13110225f80f9f3709b","session_id":"6196c7069d2690d2ed3b6a31","condition":"contingent","relevant_dimensions":["antennae","wings"],"bee_group":{"antennae":"A","wings":"1","pattern":"X","legs":"X"},"action":"harvest","summary":"good-harvest","bonus":0.980000000000001},{"rt":571,"stimulus":"\n                    <p><b>Action: <em>harvest</em></b></p>\n                    <p>This is the bee that you just saw.</p>\n                    <img src=\"bees-with-color/bee-A2DM.svg\" width=\"200\">\n                    <p><span class=\"greenText\"><b>Successful harvest!</b></span><br>Your pay has increased by $0.02. Your bonus pay is now $0.88.</p>\n            ","response":0,"trial_type":"html-button-response","trial_index":122,"time_elapsed":1032177,"internal_node_id":"0.0-4.0-1.57","subject_id":"60996da21cfc7cc1a24e32c0","study_id":"60edd13110225f80f9f3709b","session_id":"6196c7069d2690d2ed3b6a31","condition":"contingent","relevant_dimensions":["antennae","wings"],"bee_group":{"antennae":"A","wings":"1","pattern":"X","legs":"X"},"bonus":0.980000000000001},{"rt":5399,"stimulus":"bees-with-color/bee-A2DF.svg","response":0,"trial_type":"image-button-response","trial_index":123,"time_elapsed":1037577,"internal_node_id":"0.0-4.0-0.58","subject_id":"60996da21cfc7cc1a24e32c0","study_id":"60edd13110225f80f9f3709b","session_id":"6196c7069d2690d2ed3b6a31","condition":"contingent","relevant_dimensions":["antennae","wings"],"bee_group":{"antennae":"A","wings":"1","pattern":"X","legs":"X"},"action":"harvest","summary":"good-harvest","bonus":0.980000000000001},{"rt":461,"stimulus":"\n                    <p><b>Action: <em>harvest</em></b></p>\n                    <p>This is the bee that you just saw.</p>\n                    <img src=\"bees-with-color/bee-A2DF.svg\" width=\"200\">\n                    <p><span class=\"greenText\"><b>Successful harvest!</b></span><br>Your pay has increased by $0.02. Your bonus pay is now $0.90.</p>\n            ","response":0,"trial_type":"html-button-response","trial_index":124,"time_elapsed":1038038,"internal_node_id":"0.0-4.0-1.58","subject_id":"60996da21cfc7cc1a24e32c0","study_id":"60edd13110225f80f9f3709b","session_id":"6196c7069d2690d2ed3b6a31","condition":"contingent","relevant_dimensions":["antennae","wings"],"bee_group":{"antennae":"A","wings":"1","pattern":"X","legs":"X"},"bonus":0.980000000000001},{"rt":4858,"stimulus":"bees-with-color/bee-B2DM.svg","response":0,"trial_type":"image-button-response","trial_index":125,"time_elapsed":1042898,"internal_node_id":"0.0-4.0-0.59","subject_id":"60996da21cfc7cc1a24e32c0","study_id":"60edd13110225f80f9f3709b","session_id":"6196c7069d2690d2ed3b6a31","condition":"contingent","relevant_dimensions":["antennae","wings"],"bee_group":{"antennae":"A","wings":"1","pattern":"X","legs":"X"},"action":"harvest","summary":"good-harvest","bonus":0.980000000000001},{"rt":430,"stimulus":"\n                    <p><b>Action: <em>harvest</em></b></p>\n                    <p>This is the bee that you just saw.</p>\n                    <img src=\"bees-with-color/bee-B2DM.svg\" width=\"200\">\n                    <p><span class=\"greenText\"><b>Successful harvest!</b></span><br>Your pay has increased by $0.02. Your bonus pay is now $0.92.</p>\n            ","response":0,"trial_type":"html-button-response","trial_index":126,"time_elapsed":1043329,"internal_node_id":"0.0-4.0-1.59","subject_id":"60996da21cfc7cc1a24e32c0","study_id":"60edd13110225f80f9f3709b","session_id":"6196c7069d2690d2ed3b6a31","condition":"contingent","relevant_dimensions":["antennae","wings"],"bee_group":{"antennae":"A","wings":"1","pattern":"X","legs":"X"},"bonus":0.980000000000001},{"rt":6455,"stimulus":"bees-with-color/bee-B2SM.svg","response":0,"trial_type":"image-button-response","trial_index":127,"time_elapsed":1049784,"internal_node_id":"0.0-4.0-0.60","subject_id":"60996da21cfc7cc1a24e32c0","study_id":"60edd13110225f80f9f3709b","session_id":"6196c7069d2690d2ed3b6a31","condition":"contingent","relevant_dimensions":["antennae","wings"],"bee_group":{"antennae":"A","wings":"1","pattern":"X","legs":"X"},"action":"harvest","summary":"good-harvest","bonus":0.980000000000001},{"rt":463,"stimulus":"\n                    <p><b>Action: <em>harvest</em></b></p>\n                    <p>This is the bee that you just saw.</p>\n                    <img src=\"bees-with-color/bee-B2SM.svg\" width=\"200\">\n                    <p><span class=\"greenText\"><b>Successful harvest!</b></span><br>Your pay has increased by $0.02. Your bonus pay is now $0.94.</p>\n            ","response":0,"trial_type":"html-button-response","trial_index":128,"time_elapsed":1050247,"internal_node_id":"0.0-4.0-1.60","subject_id":"60996da21cfc7cc1a24e32c0","study_id":"60edd13110225f80f9f3709b","session_id":"6196c7069d2690d2ed3b6a31","condition":"contingent","relevant_dimensions":["antennae","wings"],"bee_group":{"antennae":"A","wings":"1","pattern":"X","legs":"X"},"bonus":0.980000000000001},{"rt":5461,"stimulus":"bees-with-color/bee-A1DM.svg","response":1,"trial_type":"image-button-response","trial_index":129,"time_elapsed":1055710,"internal_node_id":"0.0-4.0-0.61","subject_id":"60996da21cfc7cc1a24e32c0","study_id":"60edd13110225f80f9f3709b","session_id":"6196c7069d2690d2ed3b6a31","condition":"contingent","relevant_dimensions":["antennae","wings"],"bee_group":{"antennae":"A","wings":"1","pattern":"X","legs":"X"},"action":"avoid","summary":"good-avoid","bonus":0.980000000000001},{"rt":481,"stimulus":"\n                    <p><b>Action: <em>avoid</em></b></p>\n                    <p>This is the bee that you just saw.</p>\n                    <img src=\"bees-with-color/bee-A1DM.svg\" width=\"200\">\n                    <p><br>Your bonus pay is unchanged, and remains at $0.94.</p>\n            ","response":0,"trial_type":"html-button-response","trial_index":130,"time_elapsed":1056191,"internal_node_id":"0.0-4.0-1.61","subject_id":"60996da21cfc7cc1a24e32c0","study_id":"60edd13110225f80f9f3709b","session_id":"6196c7069d2690d2ed3b6a31","condition":"contingent","relevant_dimensions":["antennae","wings"],"bee_group":{"antennae":"A","wings":"1","pattern":"X","legs":"X"},"bonus":0.980000000000001},{"rt":7334,"stimulus":"bees-with-color/bee-B1SF.svg","response":0,"trial_type":"image-button-response","trial_index":131,"time_elapsed":1063526,"internal_node_id":"0.0-4.0-0.62","subject_id":"60996da21cfc7cc1a24e32c0","study_id":"60edd13110225f80f9f3709b","session_id":"6196c7069d2690d2ed3b6a31","condition":"contingent","relevant_dimensions":["antennae","wings"],"bee_group":{"antennae":"A","wings":"1","pattern":"X","legs":"X"},"action":"harvest","summary":"good-harvest","bonus":0.980000000000001},{"rt":510,"stimulus":"\n                    <p><b>Action: <em>harvest</em></b></p>\n                    <p>This is the bee that you just saw.</p>\n                    <img src=\"bees-with-color/bee-B1SF.svg\" width=\"200\">\n                    <p><span class=\"greenText\"><b>Successful harvest!</b></span><br>Your pay has increased by $0.02. Your bonus pay is now $0.96.</p>\n            ","response":0,"trial_type":"html-button-response","trial_index":132,"time_elapsed":1064037,"internal_node_id":"0.0-4.0-1.62","subject_id":"60996da21cfc7cc1a24e32c0","study_id":"60edd13110225f80f9f3709b","session_id":"6196c7069d2690d2ed3b6a31","condition":"contingent","relevant_dimensions":["antennae","wings"],"bee_group":{"antennae":"A","wings":"1","pattern":"X","legs":"X"},"bonus":0.980000000000001},{"rt":7315,"stimulus":"bees-with-color/bee-B1DM.svg","response":0,"trial_type":"image-button-response","trial_index":133,"time_elapsed":1071352,"internal_node_id":"0.0-4.0-0.63","subject_id":"60996da21cfc7cc1a24e32c0","study_id":"60edd13110225f80f9f3709b","session_id":"6196c7069d2690d2ed3b6a31","condition":"contingent","relevant_dimensions":["antennae","wings"],"bee_group":{"antennae":"A","wings":"1","pattern":"X","legs":"X"},"action":"harvest","summary":"good-harvest","bonus":0.980000000000001},{"rt":539,"stimulus":"\n                    <p><b>Action: <em>harvest</em></b></p>\n                    <p>This is the bee that you just saw.</p>\n                    <img src=\"bees-with-color/bee-B1DM.svg\" width=\"200\">\n                    <p><span class=\"greenText\"><b>Successful harvest!</b></span><br>Your pay has increased by $0.02. Your bonus pay is now $0.98.</p>\n            ","response":0,"trial_type":"html-button-response","trial_index":134,"time_elapsed":1071892,"internal_node_id":"0.0-4.0-1.63","subject_id":"60996da21cfc7cc1a24e32c0","study_id":"60edd13110225f80f9f3709b","session_id":"6196c7069d2690d2ed3b6a31","condition":"contingent","relevant_dimensions":["antennae","wings"],"bee_group":{"antennae":"A","wings":"1","pattern":"X","legs":"X"},"bonus":0.980000000000001},{"rt":11488,"stimulus":"You have completed the first part of this experiment.<br><br>You will now begin a shorter second part, in which you will receive no feedback.<br>The same rules regarding bonus pay apply.<br><br>Press any key to begin.","response":"enter","trial_type":"html-keyboard-response","trial_index":135,"time_elapsed":1083381,"internal_node_id":"0.0-5.0","subject_id":"60996da21cfc7cc1a24e32c0","study_id":"60edd13110225f80f9f3709b","session_id":"6196c7069d2690d2ed3b6a31","condition":"contingent","relevant_dimensions":["antennae","wings"],"bee_group":{"antennae":"A","wings":"1","pattern":"X","legs":"X"},"bonus":0.980000000000001},{"rt":7973,"stimulus":"bees-with-color/bee-A1DM.svg","response":1,"trial_type":"image-button-response","trial_index":136,"time_elapsed":1091354,"internal_node_id":"0.0-6.0-0.0","subject_id":"60996da21cfc7cc1a24e32c0","study_id":"60edd13110225f80f9f3709b","session_id":"6196c7069d2690d2ed3b6a31","condition":"contingent","relevant_dimensions":["antennae","wings"],"bee_group":{"antennae":"A","wings":"1","pattern":"X","legs":"X"},"bonus":0.980000000000001},{"rt":867,"stimulus":"bees-with-color/bee-A1DF.svg","response":1,"trial_type":"image-button-response","trial_index":137,"time_elapsed":1092222,"internal_node_id":"0.0-6.0-0.1","subject_id":"60996da21cfc7cc1a24e32c0","study_id":"60edd13110225f80f9f3709b","session_id":"6196c7069d2690d2ed3b6a31","condition":"contingent","relevant_dimensions":["antennae","wings"],"bee_group":{"antennae":"A","wings":"1","pattern":"X","legs":"X"},"bonus":0.980000000000001},{"rt":2865,"stimulus":"bees-with-color/bee-B1DM.svg","response":1,"trial_type":"image-button-response","trial_index":138,"time_elapsed":1095088,"internal_node_id":"0.0-6.0-0.2","subject_id":"60996da21cfc7cc1a24e32c0","study_id":"60edd13110225f80f9f3709b","session_id":"6196c7069d2690d2ed3b6a31","condition":"contingent","relevant_dimensions":["antennae","wings"],"bee_group":{"antennae":"A","wings":"1","pattern":"X","legs":"X"},"bonus":0.980000000000001},{"rt":499,"stimulus":"bees-with-color/bee-A2DM.svg","response":1,"trial_type":"image-button-response","trial_index":139,"time_elapsed":1095588,"internal_node_id":"0.0-6.0-0.3","subject_id":"60996da21cfc7cc1a24e32c0","study_id":"60edd13110225f80f9f3709b","session_id":"6196c7069d2690d2ed3b6a31","condition":"contingent","relevant_dimensions":["antennae","wings"],"bee_group":{"antennae":"A","wings":"1","pattern":"X","legs":"X"},"bonus":0.980000000000001},{"rt":409,"stimulus":"bees-with-color/bee-A2SF.svg","response":1,"trial_type":"image-button-response","trial_index":140,"time_elapsed":1095998,"internal_node_id":"0.0-6.0-0.4","subject_id":"60996da21cfc7cc1a24e32c0","study_id":"60edd13110225f80f9f3709b","session_id":"6196c7069d2690d2ed3b6a31","condition":"contingent","relevant_dimensions":["antennae","wings"],"bee_group":{"antennae":"A","wings":"1","pattern":"X","legs":"X"},"bonus":0.980000000000001},{"rt":153,"stimulus":"bees-with-color/bee-A2DF.svg","response":1,"trial_type":"image-button-response","trial_index":141,"time_elapsed":1096151,"internal_node_id":"0.0-6.0-0.5","subject_id":"60996da21cfc7cc1a24e32c0","study_id":"60edd13110225f80f9f3709b","session_id":"6196c7069d2690d2ed3b6a31","condition":"contingent","relevant_dimensions":["antennae","wings"],"bee_group":{"antennae":"A","wings":"1","pattern":"X","legs":"X"},"bonus":0.980000000000001},{"rt":152,"stimulus":"bees-with-color/bee-B2DM.svg","response":1,"trial_type":"image-button-response","trial_index":142,"time_elapsed":1096304,"internal_node_id":"0.0-6.0-0.6","subject_id":"60996da21cfc7cc1a24e32c0","study_id":"60edd13110225f80f9f3709b","session_id":"6196c7069d2690d2ed3b6a31","condition":"contingent","relevant_dimensions":["antennae","wings"],"bee_group":{"antennae":"A","wings":"1","pattern":"X","legs":"X"},"bonus":0.980000000000001},{"rt":144,"stimulus":"bees-with-color/bee-B2DF.svg","response":1,"trial_type":"image-button-response","trial_index":143,"time_elapsed":1096449,"internal_node_id":"0.0-6.0-0.7","subject_id":"60996da21cfc7cc1a24e32c0","study_id":"60edd13110225f80f9f3709b","session_id":"6196c7069d2690d2ed3b6a31","condition":"contingent","relevant_dimensions":["antennae","wings"],"bee_group":{"antennae":"A","wings":"1","pattern":"X","legs":"X"},"bonus":0.980000000000001},{"rt":151,"stimulus":"bees-with-color/bee-A1SM.svg","response":1,"trial_type":"image-button-response","trial_index":144,"time_elapsed":1096602,"internal_node_id":"0.0-6.0-0.8","subject_id":"60996da21cfc7cc1a24e32c0","study_id":"60edd13110225f80f9f3709b","session_id":"6196c7069d2690d2ed3b6a31","condition":"contingent","relevant_dimensions":["antennae","wings"],"bee_group":{"antennae":"A","wings":"1","pattern":"X","legs":"X"},"bonus":0.980000000000001},{"rt":144,"stimulus":"bees-with-color/bee-B1SF.svg","response":1,"trial_type":"image-button-response","trial_index":145,"time_elapsed":1096747,"internal_node_id":"0.0-6.0-0.9","subject_id":"60996da21cfc7cc1a24e32c0","study_id":"60edd13110225f80f9f3709b","session_id":"6196c7069d2690d2ed3b6a31","condition":"contingent","relevant_dimensions":["antennae","wings"],"bee_group":{"antennae":"A","wings":"1","pattern":"X","legs":"X"},"bonus":0.980000000000001},{"rt":144,"stimulus":"bees-with-color/bee-B1DF.svg","response":1,"trial_type":"image-button-response","trial_index":146,"time_elapsed":1096892,"internal_node_id":"0.0-6.0-0.10","subject_id":"60996da21cfc7cc1a24e32c0","study_id":"60edd13110225f80f9f3709b","session_id":"6196c7069d2690d2ed3b6a31","condition":"contingent","relevant_dimensions":["antennae","wings"],"bee_group":{"antennae":"A","wings":"1","pattern":"X","legs":"X"},"bonus":0.980000000000001},{"rt":139,"stimulus":"bees-with-color/bee-A1SF.svg","response":1,"trial_type":"image-button-response","trial_index":147,"time_elapsed":1097032,"internal_node_id":"0.0-6.0-0.11","subject_id":"60996da21cfc7cc1a24e32c0","study_id":"60edd13110225f80f9f3709b","session_id":"6196c7069d2690d2ed3b6a31","condition":"contingent","relevant_dimensions":["antennae","wings"],"bee_group":{"antennae":"A","wings":"1","pattern":"X","legs":"X"},"bonus":0.980000000000001},{"rt":144,"stimulus":"bees-with-color/bee-A2SM.svg","response":1,"trial_type":"image-button-response","trial_index":148,"time_elapsed":1097177,"internal_node_id":"0.0-6.0-0.12","subject_id":"60996da21cfc7cc1a24e32c0","study_id":"60edd13110225f80f9f3709b","session_id":"6196c7069d2690d2ed3b6a31","condition":"contingent","relevant_dimensions":["antennae","wings"],"bee_group":{"antennae":"A","wings":"1","pattern":"X","legs":"X"},"bonus":0.980000000000001},{"rt":149,"stimulus":"bees-with-color/bee-B1SM.svg","response":1,"trial_type":"image-button-response","trial_index":149,"time_elapsed":1097327,"internal_node_id":"0.0-6.0-0.13","subject_id":"60996da21cfc7cc1a24e32c0","study_id":"60edd13110225f80f9f3709b","session_id":"6196c7069d2690d2ed3b6a31","condition":"contingent","relevant_dimensions":["antennae","wings"],"bee_group":{"antennae":"A","wings":"1","pattern":"X","legs":"X"},"bonus":0.980000000000001},{"rt":162,"stimulus":"bees-with-color/bee-B2SM.svg","response":1,"trial_type":"image-button-response","trial_index":150,"time_elapsed":1097490,"internal_node_id":"0.0-6.0-0.14","subject_id":"60996da21cfc7cc1a24e32c0","study_id":"60edd13110225f80f9f3709b","session_id":"6196c7069d2690d2ed3b6a31","condition":"contingent","relevant_dimensions":["antennae","wings"],"bee_group":{"antennae":"A","wings":"1","pattern":"X","legs":"X"},"bonus":0.980000000000001},{"rt":138,"stimulus":"bees-with-color/bee-B2SF.svg","response":1,"trial_type":"image-button-response","trial_index":151,"time_elapsed":1097628,"internal_node_id":"0.0-6.0-0.15","subject_id":"60996da21cfc7cc1a24e32c0","study_id":"60edd13110225f80f9f3709b","session_id":"6196c7069d2690d2ed3b6a31","condition":"contingent","relevant_dimensions":["antennae","wings"],"bee_group":{"antennae":"A","wings":"1","pattern":"X","legs":"X"},"bonus":0.980000000000001},{"rt":168,"stimulus":"bees-with-color/bee-A2SF.svg","response":1,"trial_type":"image-button-response","trial_index":152,"time_elapsed":1097797,"internal_node_id":"0.0-6.0-0.16","subject_id":"60996da21cfc7cc1a24e32c0","study_id":"60edd13110225f80f9f3709b","session_id":"6196c7069d2690d2ed3b6a31","condition":"contingent","relevant_dimensions":["antennae","wings"],"bee_group":{"antennae":"A","wings":"1","pattern":"X","legs":"X"},"bonus":0.980000000000001},{"rt":153,"stimulus":"bees-with-color/bee-A1SM.svg","response":1,"trial_type":"image-button-response","trial_index":153,"time_elapsed":1097950,"internal_node_id":"0.0-6.0-0.17","subject_id":"60996da21cfc7cc1a24e32c0","study_id":"60edd13110225f80f9f3709b","session_id":"6196c7069d2690d2ed3b6a31","condition":"contingent","relevant_dimensions":["antennae","wings"],"bee_group":{"antennae":"A","wings":"1","pattern":"X","legs":"X"},"bonus":0.980000000000001},{"rt":140,"stimulus":"bees-with-color/bee-B1DM.svg","response":1,"trial_type":"image-button-response","trial_index":154,"time_elapsed":1098092,"internal_node_id":"0.0-6.0-0.18","subject_id":"60996da21cfc7cc1a24e32c0","study_id":"60edd13110225f80f9f3709b","session_id":"6196c7069d2690d2ed3b6a31","condition":"contingent","relevant_dimensions":["antennae","wings"],"bee_group":{"antennae":"A","wings":"1","pattern":"X","legs":"X"},"bonus":0.980000000000001},{"rt":153,"stimulus":"bees-with-color/bee-A2DM.svg","response":1,"trial_type":"image-button-response","trial_index":155,"time_elapsed":1098246,"internal_node_id":"0.0-6.0-0.19","subject_id":"60996da21cfc7cc1a24e32c0","study_id":"60edd13110225f80f9f3709b","session_id":"6196c7069d2690d2ed3b6a31","condition":"contingent","relevant_dimensions":["antennae","wings"],"bee_group":{"antennae":"A","wings":"1","pattern":"X","legs":"X"},"bonus":0.980000000000001},{"rt":137,"stimulus":"bees-with-color/bee-B2SF.svg","response":1,"trial_type":"image-button-response","trial_index":156,"time_elapsed":1098385,"internal_node_id":"0.0-6.0-0.20","subject_id":"60996da21cfc7cc1a24e32c0","study_id":"60edd13110225f80f9f3709b","session_id":"6196c7069d2690d2ed3b6a31","condition":"contingent","relevant_dimensions":["antennae","wings"],"bee_group":{"antennae":"A","wings":"1","pattern":"X","legs":"X"},"bonus":0.980000000000001},{"rt":160,"stimulus":"bees-with-color/bee-A1DM.svg","response":1,"trial_type":"image-button-response","trial_index":157,"time_elapsed":1098545,"internal_node_id":"0.0-6.0-0.21","subject_id":"60996da21cfc7cc1a24e32c0","study_id":"60edd13110225f80f9f3709b","session_id":"6196c7069d2690d2ed3b6a31","condition":"contingent","relevant_dimensions":["antennae","wings"],"bee_group":{"antennae":"A","wings":"1","pattern":"X","legs":"X"},"bonus":0.980000000000001},{"rt":160,"stimulus":"bees-with-color/bee-B2DM.svg","response":1,"trial_type":"image-button-response","trial_index":158,"time_elapsed":1098708,"internal_node_id":"0.0-6.0-0.22","subject_id":"60996da21cfc7cc1a24e32c0","study_id":"60edd13110225f80f9f3709b","session_id":"6196c7069d2690d2ed3b6a31","condition":"contingent","relevant_dimensions":["antennae","wings"],"bee_group":{"antennae":"A","wings":"1","pattern":"X","legs":"X"},"bonus":0.980000000000001},{"rt":155,"stimulus":"bees-with-color/bee-A2DF.svg","response":1,"trial_type":"image-button-response","trial_index":159,"time_elapsed":1098862,"internal_node_id":"0.0-6.0-0.23","subject_id":"60996da21cfc7cc1a24e32c0","study_id":"60edd13110225f80f9f3709b","session_id":"6196c7069d2690d2ed3b6a31","condition":"contingent","relevant_dimensions":["antennae","wings"],"bee_group":{"antennae":"A","wings":"1","pattern":"X","legs":"X"},"bonus":0.980000000000001},{"rt":160,"stimulus":"bees-with-color/bee-B2SM.svg","response":1,"trial_type":"image-button-response","trial_index":160,"time_elapsed":1099024,"internal_node_id":"0.0-6.0-0.24","subject_id":"60996da21cfc7cc1a24e32c0","study_id":"60edd13110225f80f9f3709b","session_id":"6196c7069d2690d2ed3b6a31","condition":"contingent","relevant_dimensions":["antennae","wings"],"bee_group":{"antennae":"A","wings":"1","pattern":"X","legs":"X"},"bonus":0.980000000000001},{"rt":158,"stimulus":"bees-with-color/bee-B1DF.svg","response":1,"trial_type":"image-button-response","trial_index":161,"time_elapsed":1099184,"internal_node_id":"0.0-6.0-0.25","subject_id":"60996da21cfc7cc1a24e32c0","study_id":"60edd13110225f80f9f3709b","session_id":"6196c7069d2690d2ed3b6a31","condition":"contingent","relevant_dimensions":["antennae","wings"],"bee_group":{"antennae":"A","wings":"1","pattern":"X","legs":"X"},"bonus":0.980000000000001},{"rt":158,"stimulus":"bees-with-color/bee-B1SM.svg","response":1,"trial_type":"image-button-response","trial_index":162,"time_elapsed":1099343,"internal_node_id":"0.0-6.0-0.26","subject_id":"60996da21cfc7cc1a24e32c0","study_id":"60edd13110225f80f9f3709b","session_id":"6196c7069d2690d2ed3b6a31","condition":"contingent","relevant_dimensions":["antennae","wings"],"bee_group":{"antennae":"A","wings":"1","pattern":"X","legs":"X"},"bonus":0.980000000000001},{"rt":157,"stimulus":"bees-with-color/bee-A1SF.svg","response":1,"trial_type":"image-button-response","trial_index":163,"time_elapsed":1099500,"internal_node_id":"0.0-6.0-0.27","subject_id":"60996da21cfc7cc1a24e32c0","study_id":"60edd13110225f80f9f3709b","session_id":"6196c7069d2690d2ed3b6a31","condition":"contingent","relevant_dimensions":["antennae","wings"],"bee_group":{"antennae":"A","wings":"1","pattern":"X","legs":"X"},"bonus":0.980000000000001},{"rt":149,"stimulus":"bees-with-color/bee-B1SF.svg","response":1,"trial_type":"image-button-response","trial_index":164,"time_elapsed":1099649,"internal_node_id":"0.0-6.0-0.28","subject_id":"60996da21cfc7cc1a24e32c0","study_id":"60edd13110225f80f9f3709b","session_id":"6196c7069d2690d2ed3b6a31","condition":"contingent","relevant_dimensions":["antennae","wings"],"bee_group":{"antennae":"A","wings":"1","pattern":"X","legs":"X"},"bonus":0.980000000000001},{"rt":152,"stimulus":"bees-with-color/bee-A1DF.svg","response":1,"trial_type":"image-button-response","trial_index":165,"time_elapsed":10998