[{"success":true,"trial_type":"fullscreen","trial_index":0,"time_elapsed":116965,"internal_node_id":"0.0-0.0","subject_id":"60fc6dfc6c5da4a24238a7e9","study_id":"6197b3f67c2b5cd3b6d9596a","session_id":"6197b54706fb59370dd4d3a9","condition":"contingent","relevant_dimensions":["antennae","pattern"],"bee_group":{"antennae":"A","wings":"X","pattern":"D","legs":"X"},"bonus":1.200000000000001},{"success":true,"timeout":false,"failed_images":[],"failed_audio":[],"failed_video":[],"trial_type":"preload","trial_index":1,"time_elapsed":124303,"internal_node_id":"0.0-1.0","subject_id":"60fc6dfc6c5da4a24238a7e9","study_id":"6197b3f67c2b5cd3b6d9596a","session_id":"6197b54706fb59370dd4d3a9","condition":"contingent","relevant_dimensions":["antennae","pattern"],"bee_group":{"antennae":"A","wings":"X","pattern":"D","legs":"X"},"bonus":1.200000000000001},{"rt":9580.099999964237,"stimulus":"Welcome! Press any key to begin.","response":"enter","trial_type":"html-keyboard-response","trial_index":2,"time_elapsed":133886,"internal_node_id":"0.0-2.0","subject_id":"60fc6dfc6c5da4a24238a7e9","study_id":"6197b3f67c2b5cd3b6d9596a","session_id":"6197b54706fb59370dd4d3a9","condition":"contingent","relevant_dimensions":["antennae","pattern"],"bee_group":{"antennae":"A","wings":"X","pattern":"D","legs":"X"},"bonus":1.200000000000001},{"view_history":[{"page_index":0,"viewing_time":5064.5},{"page_index":1,"viewing_time":12643.399999976158},{"page_index":2,"viewing_time":13927.300000011921},{"page_index":3,"viewing_time":17473.900000035763},{"page_index":4,"viewing_time":6642.699999988079},{"page_index":5,"viewing_time":9591.899999976158},{"page_index":6,"viewing_time":11255.400000035763},{"page_index":7,"viewing_time":8046.399999976158},{"page_index":8,"viewing_time":3324.699999988079},{"page_index":9,"viewing_time":3100.100000023842},{"page_index":10,"viewing_time":3291.399999976158},{"page_index":11,"viewing_time":10214.300000011921},{"page_index":12,"viewing_time":15243.399999976158},{"page_index":13,"viewing_time":2224.900000035763},{"page_index":14,"viewing_time":2610.399999976158}],"rt":124656.39999997616,"trial_type":"instructions","trial_index":3,"time_elapsed":258547,"internal_node_id":"0.0-3.0-0.0","subject_id":"60fc6dfc6c5da4a24238a7e9","study_id":"6197b3f67c2b5cd3b6d9596a","session_id":"6197b54706fb59370dd4d3a9","condition":"contingent","relevant_dimensions":["antennae","pattern"],"bee_group":{"antennae":"A","wings":"X","pattern":"D","legs":"X"},"bonus":1.200000000000001},{"rt":15601,"response":{"Q0":["Two or six legs","Stripes or spots on body","Single or double wings","Antennae or no antennae"]},"question_order":[0],"trial_type":"survey-multi-select","trial_index":4,"time_elapsed":274165,"internal_node_id":"0.0-3.0-1.0","subject_id":"60fc6dfc6c5da4a24238a7e9","study_id":"6197b3f67c2b5cd3b6d9596a","session_id":"6197b54706fb59370dd4d3a9","condition":"contingent","relevant_dimensions":["antennae","pattern"],"bee_group":{"antennae":"A","wings":"X","pattern":"D","legs":"X"},"correct":true,"bonus":1.200000000000001},{"rt":20645,"response":{"Q1":"No.","Q2":"Based on the four features of the bee.","Q3":"You do not learn if it was friendly or dangerous, and do not alter your bonus."},"question_order":[0,1,2],"trial_type":"survey-multi-choice","trial_index":5,"time_elapsed":294843,"internal_node_id":"0.0-3.0-2.0","subject_id":"60fc6dfc6c5da4a24238a7e9","study_id":"6197b3f67c2b5cd3b6d9596a","session_id":"6197b54706fb59370dd4d3a9","condition":"contingent","relevant_dimensions":["antennae","pattern"],"bee_group":{"antennae":"A","wings":"X","pattern":"D","legs":"X"},"correct":true,"bonus":1.200000000000001},{"rt":3895.600000023842,"stimulus":"<p>Congrats, you got everything right<br>When you're ready, click the button below to continue to the experiment.</p>","response":0,"trial_type":"html-button-response","trial_index":6,"time_elapsed":298760,"internal_node_id":"0.0-3.0-3.0","subject_id":"60fc6dfc6c5da4a24238a7e9","study_id":"6197b3f67c2b5cd3b6d9596a","session_id":"6197b54706fb59370dd4d3a9","condition":"contingent","relevant_dimensions":["antennae","pattern"],"bee_group":{"antennae":"A","wings":"X","pattern":"D","legs":"X"},"bonus":1.200000000000001},{"rt":33027,"stimulus":"bees-with-color/bee-A1DM.svg","response":0,"trial_type":"image-button-response","trial_index":7,"time_elapsed":331807,"internal_node_id":"0.0-4.0-0.0","subject_id":"60fc6dfc6c5da4a24238a7e9","study_id":"6197b3f67c2b5cd3b6d9596a","session_id":"6197b54706fb59370dd4d3a9","condition":"contingent","relevant_dimensions":["antennae","pattern"],"bee_group":{"antennae":"A","wings":"X","pattern":"D","legs":"X"},"action":"harvest","summary":"bad-harvest","bonus":1.200000000000001},{"rt":17075.400000035763,"stimulus":"\n                    <p><b>Action: <em>harvest</em></b></p>\n                    <p>This is the bee that you just saw.</p>\n                    <img src=\"bees-with-color/bee-A1DM.svg\" width=\"200\">\n                    <p><span class=\"redText\">Bad choice, the bee was angry.</span><br><b>You have been stung!</b><br>Your pay has been decreased by $0.10. Your bonus pay is now $0.44.</p>\n            ","response":0,"trial_type":"html-button-response","trial_index":8,"time_elapsed":348906,"internal_node_id":"0.0-4.0-1.0","subject_id":"60fc6dfc6c5da4a24238a7e9","study_id":"6197b3f67c2b5cd3b6d9596a","session_id":"6197b54706fb59370dd4d3a9","condition":"contingent","relevant_dimensions":["antennae","pattern"],"bee_group":{"antennae":"A","wings":"X","pattern":"D","legs":"X"},"bonus":1.200000000000001},{"rt":2197.699999988079,"stimulus":"bees-with-color/bee-B1DF.svg","response":0,"trial_type":"image-button-response","trial_index":9,"time_elapsed":351126,"internal_node_id":"0.0-4.0-0.1","subject_id":"60fc6dfc6c5da4a24238a7e9","study_id":"6197b3f67c2b5cd3b6d9596a","session_id":"6197b54706fb59370dd4d3a9","condition":"contingent","relevant_dimensions":["antennae","pattern"],"bee_group":{"antennae":"A","wings":"X","pattern":"D","legs":"X"},"action":"harvest","summary":"good-harvest","bonus":1.200000000000001},{"rt":31928.19999998808,"stimulus":"\n                    <p><b>Action: <em>harvest</em></b></p>\n                    <p>This is the bee that you just saw.</p>\n                    <img src=\"bees-with-color/bee-B1DF.svg\" width=\"200\">\n                    <p><span class=\"greenText\"><b>Successful harvest!</b></span><br>Your pay has increased by $0.02. Your bonus pay is now $0.46.</p>\n            ","response":0,"trial_type":"html-button-response","trial_index":10,"time_elapsed":383060,"internal_node_id":"0.0-4.0-1.1","subject_id":"60fc6dfc6c5da4a24238a7e9","study_id":"6197b3f67c2b5cd3b6d9596a","session_id":"6197b54706fb59370dd4d3a9","condition":"contingent","relevant_dimensions":["antennae","pattern"],"bee_group":{"antennae":"A","wings":"X","pattern":"D","legs":"X"},"bonus":1.200000000000001},{"rt":2529.399999976158,"stimulus":"bees-with-color/bee-A2SF.svg","response":0,"trial_type":"image-button-response","trial_index":11,"time_elapsed":385607,"internal_node_id":"0.0-4.0-0.2","subject_id":"60fc6dfc6c5da4a24238a7e9","study_id":"6197b3f67c2b5cd3b6d9596a","session_id":"6197b54706fb59370dd4d3a9","condition":"contingent","relevant_dimensions":["antennae","pattern"],"bee_group":{"antennae":"A","wings":"X","pattern":"D","legs":"X"},"action":"harvest","summary":"good-harvest","bonus":1.200000000000001},{"rt":30302.900000035763,"stimulus":"\n                    <p><b>Action: <em>harvest</em></b></p>\n                    <p>This is the bee that you just saw.</p>\n                    <img src=\"bees-with-color/bee-A2SF.svg\" width=\"200\">\n                    <p><span class=\"greenText\"><b>Successful harvest!</b></span><br>Your pay has increased by $0.02. Your bonus pay is now $0.48.</p>\n            ","response":0,"trial_type":"html-button-response","trial_index":12,"time_elapsed":415928,"internal_node_id":"0.0-4.0-1.2","subject_id":"60fc6dfc6c5da4a24238a7e9","study_id":"6197b3f67c2b5cd3b6d9596a","session_id":"6197b54706fb59370dd4d3a9","condition":"contingent","relevant_dimensions":["antennae","pattern"],"bee_group":{"antennae":"A","wings":"X","pattern":"D","legs":"X"},"bonus":1.200000000000001},{"rt":4582.099999964237,"stimulus":"bees-with-color/bee-A2DM.svg","response":0,"trial_type":"image-button-response","trial_index":13,"time_elapsed":420525,"internal_node_id":"0.0-4.0-0.3","subject_id":"60fc6dfc6c5da4a24238a7e9","study_id":"6197b3f67c2b5cd3b6d9596a","session_id":"6197b54706fb59370dd4d3a9","condition":"contingent","relevant_dimensions":["antennae","pattern"],"bee_group":{"antennae":"A","wings":"X","pattern":"D","legs":"X"},"action":"harvest","summary":"bad-harvest","bonus":1.200000000000001},{"rt":65001.10000002384,"stimulus":"\n                    <p><b>Action: <em>harvest</em></b></p>\n                    <p>This is the bee that you just saw.</p>\n                    <img src=\"bees-with-color/bee-A2DM.svg\" width=\"200\">\n                    <p><span class=\"redText\">Bad choice, the bee was angry.</span><br><b>You have been stung!</b><br>Your pay has been decreased by $0.10. Your bonus pay is now $0.38.</p>\n            ","response":0,"trial_type":"html-button-response","trial_index":14,"time_elapsed":485536,"internal_node_id":"0.0-4.0-1.3","subject_id":"60fc6dfc6c5da4a24238a7e9","study_id":"6197b3f67c2b5cd3b6d9596a","session_id":"6197b54706fb59370dd4d3a9","condition":"contingent","relevant_dimensions":["antennae","pattern"],"bee_group":{"antennae":"A","wings":"X","pattern":"D","legs":"X"},"bonus":1.200000000000001},{"rt":11897.300000011921,"stimulus":"bees-with-color/bee-B2DF.svg","response":1,"trial_type":"image-button-response","trial_index":15,"time_elapsed":497445,"internal_node_id":"0.0-4.0-0.4","subject_id":"60fc6dfc6c5da4a24238a7e9","study_id":"6197b3f67c2b5cd3b6d9596a","session_id":"6197b54706fb59370dd4d3a9","condition":"contingent","relevant_dimensions":["antennae","pattern"],"bee_group":{"antennae":"A","wings":"X","pattern":"D","legs":"X"},"action":"avoid","summary":"bad-avoid","bonus":1.200000000000001},{"rt":4956.699999988079,"stimulus":"\n                    <p><b>Action: <em>avoid</em></b></p>\n                    <p>This is the bee that you just saw.</p>\n                    <img src=\"bees-with-color/bee-B2DF.svg\" width=\"200\">\n                    <p><br>Your bonus pay is unchanged, and remains at $0.38.</p>\n            ","response":0,"trial_type":"html-button-response","trial_index":16,"time_elapsed":502432,"internal_node_id":"0.0-4.0-1.4","subject_id":"60fc6dfc6c5da4a24238a7e9","study_id":"6197b3f67c2b5cd3b6d9596a","session_id":"6197b54706fb59370dd4d3a9","condition":"contingent","relevant_dimensions":["antennae","pattern"],"bee_group":{"antennae":"A","wings":"X","pattern":"D","legs":"X"},"bonus":1.200000000000001},{"rt":6260.800000011921,"stimulus":"bees-with-color/bee-B2SF.svg","response":0,"trial_type":"image-button-response","trial_index":17,"time_elapsed":508711,"internal_node_id":"0.0-4.0-0.5","subject_id":"60fc6dfc6c5da4a24238a7e9","study_id":"6197b3f67c2b5cd3b6d9596a","session_id":"6197b54706fb59370dd4d3a9","condition":"contingent","relevant_dimensions":["antennae","pattern"],"bee_group":{"antennae":"A","wings":"X","pattern":"D","legs":"X"},"action":"harvest","summary":"good-harvest","bonus":1.200000000000001},{"rt":45524.69999998808,"stimulus":"\n                    <p><b>Action: <em>harvest</em></b></p>\n                    <p>This is the bee that you just saw.</p>\n                    <img src=\"bees-with-color/bee-B2SF.svg\" width=\"200\">\n                    <p><span class=\"greenText\"><b>Successful harvest!</b></span><br>Your pay has increased by $0.02. Your bonus pay is now $0.40.</p>\n            ","response":0,"trial_type":"html-button-response","trial_index":18,"time_elapsed":554244,"internal_node_id":"0.0-4.0-1.5","subject_id":"60fc6dfc6c5da4a24238a7e9","study_id":"6197b3f67c2b5cd3b6d9596a","session_id":"6197b54706fb59370dd4d3a9","condition":"contingent","relevant_dimensions":["antennae","pattern"],"bee_group":{"antennae":"A","wings":"X","pattern":"D","legs":"X"},"bonus":1.200000000000001},{"rt":16075.399999976158,"stimulus":"bees-with-color/bee-A2SM.svg","response":0,"trial_type":"image-button-response","trial_index":19,"time_elapsed":570329,"internal_node_id":"0.0-4.0-0.6","subject_id":"60fc6dfc6c5da4a24238a7e9","study_id":"6197b3f67c2b5cd3b6d9596a","session_id":"6197b54706fb59370dd4d3a9","condition":"contingent","relevant_dimensions":["antennae","pattern"],"bee_group":{"antennae":"A","wings":"X","pattern":"D","legs":"X"},"action":"harvest","summary":"good-harvest","bonus":1.200000000000001},{"rt":23442.899999976158,"stimulus":"\n                    <p><b>Action: <em>harvest</em></b></p>\n                    <p>This is the bee that you just saw.</p>\n                    <img src=\"bees-with-color/bee-A2SM.svg\" width=\"200\">\n                    <p><span class=\"greenText\"><b>Successful harvest!</b></span><br>Your pay has increased by $0.02. Your bonus pay is now $0.42.</p>\n            ","response":0,"trial_type":"html-button-response","trial_index":20,"time_elapsed":593793,"internal_node_id":"0.0-4.0-1.6","subject_id":"60fc6dfc6c5da4a24238a7e9","study_id":"6197b3f67c2b5cd3b6d9596a","session_id":"6197b54706fb59370dd4d3a9","condition":"contingent","relevant_dimensions":["antennae","pattern"],"bee_group":{"antennae":"A","wings":"X","pattern":"D","legs":"X"},"bonus":1.200000000000001},{"rt":9428.5,"stimulus":"bees-with-color/bee-B1SM.svg","response":0,"trial_type":"image-button-response","trial_index":21,"time_elapsed":603240,"internal_node_id":"0.0-4.0-0.7","subject_id":"60fc6dfc6c5da4a24238a7e9","study_id":"6197b3f67c2b5cd3b6d9596a","session_id":"6197b54706fb59370dd4d3a9","condition":"contingent","relevant_dimensions":["antennae","pattern"],"bee_group":{"antennae":"A","wings":"X","pattern":"D","legs":"X"},"action":"harvest","summary":"good-harvest","bonus":1.200000000000001},{"rt":31781.30000001192,"stimulus":"\n                    <p><b>Action: <em>harvest</em></b></p>\n                    <p>This is the bee that you just saw.</p>\n                    <img src=\"bees-with-color/bee-B1SM.svg\" width=\"200\">\n                    <p><span class=\"greenText\"><b>Successful harvest!</b></span><br>Your pay has increased by $0.02. Your bonus pay is now $0.44.</p>\n            ","response":0,"trial_type":"html-button-response","trial_index":22,"time_elapsed":635034,"internal_node_id":"0.0-4.0-1.7","subject_id":"60fc6dfc6c5da4a24238a7e9","study_id":"6197b3f67c2b5cd3b6d9596a","session_id":"6197b54706fb59370dd4d3a9","condition":"contingent","relevant_dimensions":["antennae","pattern"],"bee_group":{"antennae":"A","wings":"X","pattern":"D","legs":"X"},"bonus":1.200000000000001},{"rt":5874.400000035763,"stimulus":"bees-with-color/bee-B2DM.svg","response":1,"trial_type":"image-button-response","trial_index":23,"time_elapsed":640923,"internal_node_id":"0.0-4.0-0.8","subject_id":"60fc6dfc6c5da4a24238a7e9","study_id":"6197b3f67c2b5cd3b6d9596a","session_id":"6197b54706fb59370dd4d3a9","condition":"contingent","relevant_dimensions":["antennae","pattern"],"bee_group":{"antennae":"A","wings":"X","pattern":"D","legs":"X"},"action":"avoid","summary":"bad-avoid","bonus":1.200000000000001},{"rt":2872,"stimulus":"\n                    <p><b>Action: <em>avoid</em></b></p>\n                    <p>This is the bee that you just saw.</p>\n                    <img src=\"bees-with-color/bee-B2DM.svg\" width=\"200\">\n                    <p><br>Your bonus pay is unchanged, and remains at $0.44.</p>\n            ","response":0,"trial_type":"html-button-response","trial_index":24,"time_elapsed":643812,"internal_node_id":"0.0-4.0-1.8","subject_id":"60fc6dfc6c5da4a24238a7e9","study_id":"6197b3f67c2b5cd3b6d9596a","session_id":"6197b54706fb59370dd4d3a9","condition":"contingent","relevant_dimensions":["antennae","pattern"],"bee_group":{"antennae":"A","wings":"X","pattern":"D","legs":"X"},"bonus":1.200000000000001},{"rt":2582,"stimulus":"bees-with-color/bee-A1DF.svg","response":1,"trial_type":"image-button-response","trial_index":25,"time_elapsed":646408,"internal_node_id":"0.0-4.0-0.9","subject_id":"60fc6dfc6c5da4a24238a7e9","study_id":"6197b3f67c2b5cd3b6d9596a","session_id":"6197b54706fb59370dd4d3a9","condition":"contingent","relevant_dimensions":["antennae","pattern"],"bee_group":{"antennae":"A","wings":"X","pattern":"D","legs":"X"},"action":"avoid","summary":"good-avoid","bonus":1.200000000000001},{"rt":2190.599999964237,"stimulus":"\n                    <p><b>Action: <em>avoid</em></b></p>\n                    <p>This is the bee that you just saw.</p>\n                    <img src=\"bees-with-color/bee-A1DF.svg\" width=\"200\">\n                    <p><br>Your bonus pay is unchanged, and remains at $0.44.</p>\n            ","response":0,"trial_type":"html-button-response","trial_index":26,"time_elapsed":648604,"internal_node_id":"0.0-4.0-1.9","subject_id":"60fc6dfc6c5da4a24238a7e9","study_id":"6197b3f67c2b5cd3b6d9596a","session_id":"6197b54706fb59370dd4d3a9","condition":"contingent","relevant_dimensions":["antennae","pattern"],"bee_group":{"antennae":"A","wings":"X","pattern":"D","legs":"X"},"bonus":1.200000000000001},{"rt":6826.800000011921,"stimulus":"bees-with-color/bee-A2DF.svg","response":0,"trial_type":"image-button-response","trial_index":27,"time_elapsed":655444,"internal_node_id":"0.0-4.0-0.10","subject_id":"60fc6dfc6c5da4a24238a7e9","study_id":"6197b3f67c2b5cd3b6d9596a","session_id":"6197b54706fb59370dd4d3a9","condition":"contingent","relevant_dimensions":["antennae","pattern"],"bee_group":{"antennae":"A","wings":"X","pattern":"D","legs":"X"},"action":"harvest","summary":"bad-harvest","bonus":1.200000000000001},{"rt":7878.899999976158,"stimulus":"\n                    <p><b>Action: <em>harvest</em></b></p>\n                    <p>This is the bee that you just saw.</p>\n                    <img src=\"bees-with-color/bee-A2DF.svg\" width=\"200\">\n                    <p><span class=\"redText\">Bad choice, the bee was angry.</span><br><b>You have been stung!</b><br>Your pay has been decreased by $0.10. Your bonus pay is now $0.34.</p>\n            ","response":0,"trial_type":"html-button-response","trial_index":28,"time_elapsed":663341,"internal_node_id":"0.0-4.0-1.10","subject_id":"60fc6dfc6c5da4a24238a7e9","study_id":"6197b3f67c2b5cd3b6d9596a","session_id":"6197b54706fb59370dd4d3a9","condition":"contingent","relevant_dimensions":["antennae","pattern"],"bee_group":{"antennae":"A","wings":"X","pattern":"D","legs":"X"},"bonus":1.200000000000001},{"rt":10082,"stimulus":"bees-with-color/bee-B2SM.svg","response":0,"trial_type":"image-button-response","trial_index":29,"time_elapsed":673439,"internal_node_id":"0.0-4.0-0.11","subject_id":"60fc6dfc6c5da4a24238a7e9","study_id":"6197b3f67c2b5cd3b6d9596a","session_id":"6197b54706fb59370dd4d3a9","condition":"contingent","relevant_dimensions":["antennae","pattern"],"bee_group":{"antennae":"A","wings":"X","pattern":"D","legs":"X"},"action":"harvest","summary":"good-harvest","bonus":1.200000000000001},{"rt":1405.4000000357628,"stimulus":"\n                    <p><b>Action: <em>harvest</em></b></p>\n                    <p>This is the bee that you just saw.</p>\n                    <img src=\"bees-with-color/bee-B2SM.svg\" width=\"200\">\n                    <p><span class=\"greenText\"><b>Successful harvest!</b></span><br>Your pay has increased by $0.02. Your bonus pay is now $0.36.</p>\n            ","response":0,"trial_type":"html-button-response","trial_index":30,"time_elapsed":674855,"internal_node_id":"0.0-4.0-1.11","subject_id":"60fc6dfc6c5da4a24238a7e9","study_id":"6197b3f67c2b5cd3b6d9596a","session_id":"6197b54706fb59370dd4d3a9","condition":"contingent","relevant_dimensions":["antennae","pattern"],"bee_group":{"antennae":"A","wings":"X","pattern":"D","legs":"X"},"bonus":1.200000000000001},{"rt":2873.2999999523163,"stimulus":"bees-with-color/bee-B1DM.svg","response":1,"trial_type":"image-button-response","trial_index":31,"time_elapsed":677740,"internal_node_id":"0.0-4.0-0.12","subject_id":"60fc6dfc6c5da4a24238a7e9","study_id":"6197b3f67c2b5cd3b6d9596a","session_id":"6197b54706fb59370dd4d3a9","condition":"contingent","relevant_dimensions":["antennae","pattern"],"bee_group":{"antennae":"A","wings":"X","pattern":"D","legs":"X"},"action":"avoid","summary":"bad-avoid","bonus":1.200000000000001},{"rt":3749.5,"stimulus":"\n                    <p><b>Action: <em>avoid</em></b></p>\n                    <p>This is the bee that you just saw.</p>\n                    <img src=\"bees-with-color/bee-B1DM.svg\" width=\"200\">\n                    <p><br>Your bonus pay is unchanged, and remains at $0.36.</p>\n            ","response":0,"trial_type":"html-button-response","trial_index":32,"time_elapsed":681506,"internal_node_id":"0.0-4.0-1.12","subject_id":"60fc6dfc6c5da4a24238a7e9","study_id":"6197b3f67c2b5cd3b6d9596a","session_id":"6197b54706fb59370dd4d3a9","condition":"contingent","relevant_dimensions":["antennae","pattern"],"bee_group":{"antennae":"A","wings":"X","pattern":"D","legs":"X"},"bonus":1.200000000000001},{"rt":3801.699999988079,"stimulus":"bees-with-color/bee-A1SM.svg","response":0,"trial_type":"image-button-response","trial_index":33,"time_elapsed":685319,"internal_node_id":"0.0-4.0-0.13","subject_id":"60fc6dfc6c5da4a24238a7e9","study_id":"6197b3f67c2b5cd3b6d9596a","session_id":"6197b54706fb59370dd4d3a9","condition":"contingent","relevant_dimensions":["antennae","pattern"],"bee_group":{"antennae":"A","wings":"X","pattern":"D","legs":"X"},"action":"harvest","summary":"good-harvest","bonus":1.200000000000001},{"rt":9935.099999964237,"stimulus":"\n                    <p><b>Action: <em>harvest</em></b></p>\n                    <p>This is the bee that you just saw.</p>\n                    <img src=\"bees-with-color/bee-A1SM.svg\" width=\"200\">\n                    <p><span class=\"greenText\"><b>Successful harvest!</b></span><br>Your pay has increased by $0.02. Your bonus pay is now $0.38.</p>\n            ","response":0,"trial_type":"html-button-response","trial_index":34,"time_elapsed":695259,"internal_node_id":"0.0-4.0-1.13","subject_id":"60fc6dfc6c5da4a24238a7e9","study_id":"6197b3f67c2b5cd3b6d9596a","session_id":"6197b54706fb59370dd4d3a9","condition":"contingent","relevant_dimensions":["antennae","pattern"],"bee_group":{"antennae":"A","wings":"X","pattern":"D","legs":"X"},"bonus":1.200000000000001},{"rt":10353.5,"stimulus":"bees-with-color/bee-A1SF.svg","response":0,"trial_type":"image-button-response","trial_index":35,"time_elapsed":705623,"internal_node_id":"0.0-4.0-0.14","subject_id":"60fc6dfc6c5da4a24238a7e9","study_id":"6197b3f67c2b5cd3b6d9596a","session_id":"6197b54706fb59370dd4d3a9","condition":"contingent","relevant_dimensions":["antennae","pattern"],"bee_group":{"antennae":"A","wings":"X","pattern":"D","legs":"X"},"action":"harvest","summary":"good-harvest","bonus":1.200000000000001},{"rt":1459.4000000357628,"stimulus":"\n                    <p><b>Action: <em>harvest</em></b></p>\n                    <p>This is the bee that you just saw.</p>\n                    <img src=\"bees-with-color/bee-A1SF.svg\" width=\"200\">\n                    <p><span class=\"greenText\"><b>Successful harvest!</b></span><br>Your pay has increased by $0.02. Your bonus pay is now $0.40.</p>\n            ","response":0,"trial_type":"html-button-response","trial_index":36,"time_elapsed":707092,"internal_node_id":"0.0-4.0-1.14","subject_id":"60fc6dfc6c5da4a24238a7e9","study_id":"6197b3f67c2b5cd3b6d9596a","session_id":"6197b54706fb59370dd4d3a9","condition":"contingent","relevant_dimensions":["antennae","pattern"],"bee_group":{"antennae":"A","wings":"X","pattern":"D","legs":"X"},"bonus":1.200000000000001},{"rt":5643.100000023842,"stimulus":"bees-with-color/bee-B1SF.svg","response":0,"trial_type":"image-button-response","trial_index":37,"time_elapsed":712745,"internal_node_id":"0.0-4.0-0.15","subject_id":"60fc6dfc6c5da4a24238a7e9","study_id":"6197b3f67c2b5cd3b6d9596a","session_id":"6197b54706fb59370dd4d3a9","condition":"contingent","relevant_dimensions":["antennae","pattern"],"bee_group":{"antennae":"A","wings":"X","pattern":"D","legs":"X"},"action":"harvest","summary":"good-harvest","bonus":1.200000000000001},{"rt":1302,"stimulus":"\n                    <p><b>Action: <em>harvest</em></b></p>\n                    <p>This is the bee that you just saw.</p>\n                    <img src=\"bees-with-color/bee-B1SF.svg\" width=\"200\">\n                    <p><span class=\"greenText\"><b>Successful harvest!</b></span><br>Your pay has increased by $0.02. Your bonus pay is now $0.42.</p>\n            ","response":0,"trial_type":"html-button-response","trial_index":38,"time_elapsed":714059,"internal_node_id":"0.0-4.0-1.15","subject_id":"60fc6dfc6c5da4a24238a7e9","study_id":"6197b3f67c2b5cd3b6d9596a","session_id":"6197b54706fb59370dd4d3a9","condition":"contingent","relevant_dimensions":["antennae","pattern"],"bee_group":{"antennae":"A","wings":"X","pattern":"D","legs":"X"},"bonus":1.200000000000001},{"rt":2314.199999988079,"stimulus":"bees-with-color/bee-A1DM.svg","response":1,"trial_type":"image-button-response","trial_index":39,"time_elapsed":716384,"internal_node_id":"0.0-4.0-0.16","subject_id":"60fc6dfc6c5da4a24238a7e9","study_id":"6197b3f67c2b5cd3b6d9596a","session_id":"6197b54706fb59370dd4d3a9","condition":"contingent","relevant_dimensions":["antennae","pattern"],"bee_group":{"antennae":"A","wings":"X","pattern":"D","legs":"X"},"action":"avoid","summary":"good-avoid","bonus":1.200000000000001},{"rt":1536.0999999642372,"stimulus":"\n                    <p><b>Action: <em>avoid</em></b></p>\n                    <p>This is the bee that you just saw.</p>\n                    <img src=\"bees-with-color/bee-A1DM.svg\" width=\"200\">\n                    <p><br>Your bonus pay is unchanged, and remains at $0.42.</p>\n            ","response":0,"trial_type":"html-button-response","trial_index":40,"time_elapsed":717928,"internal_node_id":"0.0-4.0-1.16","subject_id":"60fc6dfc6c5da4a24238a7e9","study_id":"6197b3f67c2b5cd3b6d9596a","session_id":"6197b54706fb59370dd4d3a9","condition":"contingent","relevant_dimensions":["antennae","pattern"],"bee_group":{"antennae":"A","wings":"X","pattern":"D","legs":"X"},"bonus":1.200000000000001},{"rt":2007.0999999642372,"stimulus":"bees-with-color/bee-B1DF.svg","response":1,"trial_type":"image-button-response","trial_index":41,"time_elapsed":719943,"internal_node_id":"0.0-4.0-0.17","subject_id":"60fc6dfc6c5da4a24238a7e9","study_id":"6197b3f67c2b5cd3b6d9596a","session_id":"6197b54706fb59370dd4d3a9","condition":"contingent","relevant_dimensions":["antennae","pattern"],"bee_group":{"antennae":"A","wings":"X","pattern":"D","legs":"X"},"action":"avoid","summary":"bad-avoid","bonus":1.200000000000001},{"rt":966.4000000357628,"stimulus":"\n                    <p><b>Action: <em>avoid</em></b></p>\n                    <p>This is the bee that you just saw.</p>\n                    <img src=\"bees-with-color/bee-B1DF.svg\" width=\"200\">\n                    <p><br>Your bonus pay is unchanged, and remains at $0.42.</p>\n            ","response":0,"trial_type":"html-button-response","trial_index":42,"time_elapsed":720934,"internal_node_id":"0.0-4.0-1.17","subject_id":"60fc6dfc6c5da4a24238a7e9","study_id":"6197b3f67c2b5cd3b6d9596a","session_id":"6197b54706fb59370dd4d3a9","condition":"contingent","relevant_dimensions":["antennae","pattern"],"bee_group":{"antennae":"A","wings":"X","pattern":"D","legs":"X"},"bonus":1.200000000000001},{"rt":1545.7999999523163,"stimulus":"bees-with-color/bee-B1DM.svg","response":1,"trial_type":"image-button-response","trial_index":43,"time_elapsed":722490,"internal_node_id":"0.0-4.0-0.18","subject_id":"60fc6dfc6c5da4a24238a7e9","study_id":"6197b3f67c2b5cd3b6d9596a","session_id":"6197b54706fb59370dd4d3a9","condition":"contingent","relevant_dimensions":["antennae","pattern"],"bee_group":{"antennae":"A","wings":"X","pattern":"D","legs":"X"},"action":"avoid","summary":"bad-avoid","bonus":1.200000000000001},{"rt":1117.7999999523163,"stimulus":"\n                    <p><b>Action: <em>avoid</em></b></p>\n                    <p>This is the bee that you just saw.</p>\n                    <img src=\"bees-with-color/bee-B1DM.svg\" width=\"200\">\n                    <p><br>Your bonus pay is unchanged, and remains at $0.42.</p>\n            ","response":0,"trial_type":"html-button-response","trial_index":44,"time_elapsed":723616,"internal_node_id":"0.0-4.0-1.18","subject_id":"60fc6dfc6c5da4a24238a7e9","study_id":"6197b3f67c2b5cd3b6d9596a","session_id":"6197b54706fb59370dd4d3a9","condition":"contingent","relevant_dimensions":["antennae","pattern"],"bee_group":{"antennae":"A","wings":"X","pattern":"D","legs":"X"},"bonus":1.200000000000001},{"rt":7701,"stimulus":"bees-with-color/bee-A2SF.svg","response":0,"trial_type":"image-button-response","trial_index":45,"time_elapsed":731326,"internal_node_id":"0.0-4.0-0.19","subject_id":"60fc6dfc6c5da4a24238a7e9","study_id":"6197b3f67c2b5cd3b6d9596a","session_id":"6197b54706fb59370dd4d3a9","condition":"contingent","relevant_dimensions":["antennae","pattern"],"bee_group":{"antennae":"A","wings":"X","pattern":"D","legs":"X"},"action":"harvest","summary":"good-harvest","bonus":1.200000000000001},{"rt":1572.199999988079,"stimulus":"\n                    <p><b>Action: <em>harvest</em></b></p>\n                    <p>This is the bee that you just saw.</p>\n                    <img src=\"bees-with-color/bee-A2SF.svg\" width=\"200\">\n                    <p><span class=\"greenText\"><b>Successful harvest!</b></span><br>Your pay has increased by $0.02. Your bonus pay is now $0.44.</p>\n            ","response":0,"trial_type":"html-button-response","trial_index":46,"time_elapsed":732903,"internal_node_id":"0.0-4.0-1.19","subject_id":"60fc6dfc6c5da4a24238a7e9","study_id":"6197b3f67c2b5cd3b6d9596a","session_id":"6197b54706fb59370dd4d3a9","condition":"contingent","relevant_dimensions":["antennae","pattern"],"bee_group":{"antennae":"A","wings":"X","pattern":"D","legs":"X"},"bonus":1.200000000000001},{"rt":6688.299999952316,"stimulus":"bees-with-color/bee-B2SM.svg","response":0,"trial_type":"image-button-response","trial_index":47,"time_elapsed":739608,"internal_node_id":"0.0-4.0-0.20","subject_id":"60fc6dfc6c5da4a24238a7e9","study_id":"6197b3f67c2b5cd3b6d9596a","session_id":"6197b54706fb59370dd4d3a9","condition":"contingent","relevant_dimensions":["antennae","pattern"],"bee_group":{"antennae":"A","wings":"X","pattern":"D","legs":"X"},"action":"harvest","summary":"good-harvest","bonus":1.200000000000001},{"rt":1631.800000011921,"stimulus":"\n                    <p><b>Action: <em>harvest</em></b></p>\n                    <p>This is the bee that you just saw.</p>\n                    <img src=\"bees-with-color/bee-B2SM.svg\" width=\"200\">\n                    <p><span class=\"greenText\"><b>Successful harvest!</b></span><br>Your pay has increased by $0.02. Your bonus pay is now $0.46.</p>\n            ","response":0,"trial_type":"html-button-response","trial_index":48,"time_elapsed":741253,"internal_node_id":"0.0-4.0-1.20","subject_id":"60fc6dfc6c5da4a24238a7e9","study_id":"6197b3f67c2b5cd3b6d9596a","session_id":"6197b54706fb59370dd4d3a9","condition":"contingent","relevant_dimensions":["antennae","pattern"],"bee_group":{"antennae":"A","wings":"X","pattern":"D","legs":"X"},"bonus":1.200000000000001},{"rt":12640,"stimulus":"bees-with-color/bee-A2DF.svg","response":1,"trial_type":"image-button-response","trial_index":49,"time_elapsed":753904,"internal_node_id":"0.0-4.0-0.21","subject_id":"60fc6dfc6c5da4a24238a7e9","study_id":"6197b3f67c2b5cd3b6d9596a","session_id":"6197b54706fb59370dd4d3a9","condition":"contingent","relevant_dimensions":["antennae","pattern"],"bee_group":{"antennae":"A","wings":"X","pattern":"D","legs":"X"},"action":"avoid","summary":"good-avoid","bonus":1.200000000000001},{"rt":1938,"stimulus":"\n                    <p><b>Action: <em>avoid</em></b></p>\n                    <p>This is the bee that you just saw.</p>\n                    <img src=\"bees-with-color/bee-A2DF.svg\" width=\"200\">\n                    <p><br>Your bonus pay is unchanged, and remains at $0.46.</p>\n            ","response":0,"trial_type":"html-button-response","trial_index":50,"time_elapsed":755853,"internal_node_id":"0.0-4.0-1.21","subject_id":"60fc6dfc6c5da4a24238a7e9","study_id":"6197b3f67c2b5cd3b6d9596a","session_id":"6197b54706fb59370dd4d3a9","condition":"contingent","relevant_dimensions":["antennae","pattern"],"bee_group":{"antennae":"A","wings":"X","pattern":"D","legs":"X"},"bonus":1.200000000000001},{"rt":10749.200000047684,"stimulus":"bees-with-color/bee-B2DM.svg","response":1,"trial_type":"image-button-response","trial_index":51,"time_elapsed":766608,"internal_node_id":"0.0-4.0-0.22","subject_id":"60fc6dfc6c5da4a24238a7e9","study_id":"6197b3f67c2b5cd3b6d9596a","session_id":"6197b54706fb59370dd4d3a9","condition":"contingent","relevant_dimensions":["antennae","pattern"],"bee_group":{"antennae":"A","wings":"X","pattern":"D","legs":"X"},"action":"avoid","summary":"bad-avoid","bonus":1.200000000000001},{"rt":1343.199999988079,"stimulus":"\n                    <p><b>Action: <em>avoid</em></b></p>\n                    <p>This is the bee that you just saw.</p>\n                    <img src=\"bees-with-color/bee-B2DM.svg\" width=\"200\">\n                    <p><br>Your bonus pay is unchanged, and remains at $0.46.</p>\n            ","response":0,"trial_type":"html-button-response","trial_index":52,"time_elapsed":767961,"internal_node_id":"0.0-4.0-1.22","subject_id":"60fc6dfc6c5da4a24238a7e9","study_id":"6197b3f67c2b5cd3b6d9596a","session_id":"6197b54706fb59370dd4d3a9","condition":"contingent","relevant_dimensions":["antennae","pattern"],"bee_group":{"antennae":"A","wings":"X","pattern":"D","legs":"X"},"bonus":1.200000000000001},{"rt":5958.099999964237,"stimulus":"bees-with-color/bee-B1SF.svg","response":0,"trial_type":"image-button-response","trial_index":53,"time_elapsed":773934,"internal_node_id":"0.0-4.0-0.23","subject_id":"60fc6dfc6c5da4a24238a7e9","study_id":"6197b3f67c2b5cd3b6d9596a","session_id":"6197b54706fb59370dd4d3a9","condition":"contingent","relevant_dimensions":["antennae","pattern"],"bee_group":{"antennae":"A","wings":"X","pattern":"D","legs":"X"},"action":"harvest","summary":"good-harvest","bonus":1.200000000000001},{"rt":1463.6000000238419,"stimulus":"\n                    <p><b>Action: <em>harvest</em></b></p>\n                    <p>This is the bee that you just saw.</p>\n                    <img src=\"bees-with-color/bee-B1SF.svg\" width=\"200\">\n                    <p><span class=\"greenText\"><b>Successful harvest!</b></span><br>Your pay has increased by $0.02. Your bonus pay is now $0.48.</p>\n            ","response":0,"trial_type":"html-button-response","trial_index":54,"time_elapsed":775407,"internal_node_id":"0.0-4.0-1.23","subject_id":"60fc6dfc6c5da4a24238a7e9","study_id":"6197b3f67c2b5cd3b6d9596a","session_id":"6197b54706fb59370dd4d3a9","condition":"contingent","relevant_dimensions":["antennae","pattern"],"bee_group":{"antennae":"A","wings":"X","pattern":"D","legs":"X"},"bonus":1.200000000000001},{"rt":7052.5,"stimulus":"bees-with-color/bee-A1DF.svg","response":0,"trial_type":"image-button-response","trial_index":55,"time_elapsed":782489,"internal_node_id":"0.0-4.0-0.24","subject_id":"60fc6dfc6c5da4a24238a7e9","study_id":"6197b3f67c2b5cd3b6d9596a","session_id":"6197b54706fb59370dd4d3a9","condition":"contingent","relevant_dimensions":["antennae","pattern"],"bee_group":{"antennae":"A","wings":"X","pattern":"D","legs":"X"},"action":"harvest","summary":"bad-harvest","bonus":1.200000000000001},{"rt":1349.5,"stimulus":"\n                    <p><b>Action: <em>harvest</em></b></p>\n                    <p>This is the bee that you just saw.</p>\n                    <img src=\"bees-with-color/bee-A1DF.svg\" width=\"200\">\n                    <p><span class=\"redText\">Bad choice, the bee was angry.</span><br><b>You have been stung!</b><br>Your pay has been decreased by $0.10. Your bonus pay is now $0.38.</p>\n            ","response":0,"trial_type":"html-button-response","trial_index":56,"time_elapsed":783849,"internal_node_id":"0.0-4.0-1.24","subject_id":"60fc6dfc6c5da4a24238a7e9","study_id":"6197b3f67c2b5cd3b6d9596a","session_id":"6197b54706fb59370dd4d3a9","condition":"contingent","relevant_dimensions":["antennae","pattern"],"bee_group":{"antennae":"A","wings":"X","pattern":"D","legs":"X"},"bonus":1.200000000000001},{"rt":1815.9000000357628,"stimulus":"bees-with-color/bee-A1SF.svg","response":0,"trial_type":"image-button-response","trial_index":57,"time_elapsed":785685,"internal_node_id":"0.0-4.0-0.25","subject_id":"60fc6dfc6c5da4a24238a7e9","study_id":"6197b3f67c2b5cd3b6d9596a","session_id":"6197b54706fb59370dd4d3a9","condition":"contingent","relevant_dimensions":["antennae","pattern"],"bee_group":{"antennae":"A","wings":"X","pattern":"D","legs":"X"},"action":"harvest","summary":"good-harvest","bonus":1.200000000000001},{"rt":1271.6000000238419,"stimulus":"\n                    <p><b>Action: <em>harvest</em></b></p>\n                    <p>This is the bee that you just saw.</p>\n                    <img src=\"bees-with-color/bee-A1SF.svg\" width=\"200\">\n                    <p><span class=\"greenText\"><b>Successful harvest!</b></span><br>Your pay has increased by $0.02. Your bonus pay is now $0.40.</p>\n            ","response":0,"trial_type":"html-button-response","trial_index":58,"time_elapsed":786969,"internal_node_id":"0.0-4.0-1.25","subject_id":"60fc6dfc6c5da4a24238a7e9","study_id":"6197b3f67c2b5cd3b6d9596a","session_id":"6197b54706fb59370dd4d3a9","condition":"contingent","relevant_dimensions":["antennae","pattern"],"bee_group":{"antennae":"A","wings":"X","pattern":"D","legs":"X"},"bonus":1.200000000000001},{"rt":2402.5,"stimulus":"bees-with-color/bee-A2SM.svg","response":0,"trial_type":"image-button-response","trial_index":59,"time_elapsed":789390,"internal_node_id":"0.0-4.0-0.26","subject_id":"60fc6dfc6c5da4a24238a7e9","study_id":"6197b3f67c2b5cd3b6d9596a","session_id":"6197b54706fb59370dd4d3a9","condition":"contingent","relevant_dimensions":["antennae","pattern"],"bee_group":{"antennae":"A","wings":"X","pattern":"D","legs":"X"},"action":"harvest","summary":"good-harvest","bonus":1.200000000000001},{"rt":1342.3999999761581,"stimulus":"\n                    <p><b>Action: <em>harvest</em></b></p>\n                    <p>This is the bee that you just saw.</p>\n                    <img src=\"bees-with-color/bee-A2SM.svg\" width=\"200\">\n                    <p><span class=\"greenText\"><b>Successful harvest!</b></span><br>Your pay has increased by $0.02. Your bonus pay is now $0.42.</p>\n            ","response":0,"trial_type":"html-button-response","trial_index":60,"time_elapsed":790740,"internal_node_id":"0.0-4.0-1.26","subject_id":"60fc6dfc6c5da4a24238a7e9","study_id":"6197b3f67c2b5cd3b6d9596a","session_id":"6197b54706fb59370dd4d3a9","condition":"contingent","relevant_dimensions":["antennae","pattern"],"bee_group":{"antennae":"A","wings":"X","pattern":"D","legs":"X"},"bonus":1.200000000000001},{"rt":6414.900000035763,"stimulus":"bees-with-color/bee-B2DF.svg","response":1,"trial_type":"image-button-response","trial_index":61,"time_elapsed":797171,"internal_node_id":"0.0-4.0-0.27","subject_id":"60fc6dfc6c5da4a24238a7e9","study_id":"6197b3f67c2b5cd3b6d9596a","session_id":"6197b54706fb59370dd4d3a9","condition":"contingent","relevant_dimensions":["antennae","pattern"],"bee_group":{"antennae":"A","wings":"X","pattern":"D","legs":"X"},"action":"avoid","summary":"bad-avoid","bonus":1.200000000000001},{"rt":1928.3999999761581,"stimulus":"\n                    <p><b>Action: <em>avoid</em></b></p>\n                    <p>This is the bee that you just saw.</p>\n                    <img src=\"bees-with-color/bee-B2DF.svg\" width=\"200\">\n                    <p><br>Your bonus pay is unchanged, and remains at $0.42.</p>\n            ","response":0,"trial_type":"html-button-response","trial_index":62,"time_elapsed":799104,"internal_node_id":"0.0-4.0-1.27","subject_id":"60fc6dfc6c5da4a24238a7e9","study_id":"6197b3f67c2b5cd3b6d9596a","session_id":"6197b54706fb59370dd4d3a9","condition":"contingent","relevant_dimensions":["antennae","pattern"],"bee_group":{"antennae":"A","wings":"X","pattern":"D","legs":"X"},"bonus":1.200000000000001},{"rt":2217.199999988079,"stimulus":"bees-with-color/bee-B1SM.svg","response":0,"trial_type":"image-button-response","trial_index":63,"time_elapsed":801334,"internal_node_id":"0.0-4.0-0.28","subject_id":"60fc6dfc6c5da4a24238a7e9","study_id":"6197b3f67c2b5cd3b6d9596a","session_id":"6197b54706fb59370dd4d3a9","condition":"contingent","relevant_dimensions":["antennae","pattern"],"bee_group":{"antennae":"A","wings":"X","pattern":"D","legs":"X"},"action":"harvest","summary":"good-harvest","bonus":1.200000000000001},{"rt":1405.199999988079,"stimulus":"\n                    <p><b>Action: <em>harvest</em></b></p>\n                    <p>This is the bee that you just saw.</p>\n                    <img src=\"bees-with-color/bee-B1SM.svg\" width=\"200\">\n                    <p><span class=\"greenText\"><b>Successful harvest!</b></span><br>Your pay has increased by $0.02. Your bonus pay is now $0.44.</p>\n            ","response":0,"trial_type":"html-button-response","trial_index":64,"time_elapsed":802751,"internal_node_id":"0.0-4.0-1.28","subject_id":"60fc6dfc6c5da4a24238a7e9","study_id":"6197b3f67c2b5cd3b6d9596a","session_id":"6197b54706fb59370dd4d3a9","condition":"contingent","relevant_dimensions":["antennae","pattern"],"bee_group":{"antennae":"A","wings":"X","pattern":"D","legs":"X"},"bonus":1.200000000000001},{"rt":4279.800000011921,"stimulus":"bees-with-color/bee-A2DM.svg","response":1,"trial_type":"image-button-response","trial_index":65,"time_elapsed":807042,"internal_node_id":"0.0-4.0-0.29","subject_id":"60fc6dfc6c5da4a24238a7e9","study_id":"6197b3f67c2b5cd3b6d9596a","session_id":"6197b54706fb59370dd4d3a9","condition":"contingent","relevant_dimensions":["antennae","pattern"],"bee_group":{"antennae":"A","wings":"X","pattern":"D","legs":"X"},"action":"avoid","summary":"good-avoid","bonus":1.200000000000001},{"rt":1161.5999999642372,"stimulus":"\n                    <p><b>Action: <em>avoid</em></b></p>\n                    <p>This is the bee that you just saw.</p>\n                    <img src=\"bees-with-color/bee-A2DM.svg\" width=\"200\">\n                    <p><br>Your bonus pay is unchanged, and remains at $0.44.</p>\n            ","response":0,"trial_type":"html-button-response","trial_index":66,"time_elapsed":808226,"internal_node_id":"0.0-4.0-1.29","subject_id":"60fc6dfc6c5da4a24238a7e9","study_id":"6197b3f67c2b5cd3b6d9596a","session_id":"6197b54706fb59370dd4d3a9","condition":"contingent","relevant_dimensions":["antennae","pattern"],"bee_group":{"antennae":"A","wings":"X","pattern":"D","legs":"X"},"bonus":1.200000000000001},{"rt":1973,"stimulus":"bees-with-color/bee-A1SM.svg","response":0,"trial_type":"image-button-response","trial_index":67,"time_elapsed":810217,"internal_node_id":"0.0-4.0-0.30","subject_id":"60fc6dfc6c5da4a24238a7e9","study_id":"6197b3f67c2b5cd3b6d9596a","session_id":"6197b54706fb59370dd4d3a9","condition":"contingent","relevant_dimensions":["antennae","pattern"],"bee_group":{"antennae":"A","wings":"X","pattern":"D","legs":"X"},"action":"harvest","summary":"good-harvest","bonus":1.200000000000001},{"rt":967.6000000238419,"stimulus":"\n                    <p><b>Action: <em>harvest</em></b></p>\n                    <p>This is the bee that you just saw.</p>\n                    <img src=\"bees-with-color/bee-A1SM.svg\" width=\"200\">\n                    <p><span class=\"greenText\"><b>Successful harvest!</b></span><br>Your pay has increased by $0.02. Your bonus pay is now $0.46.</p>\n            ","response":0,"trial_type":"html-button-response","trial_index":68,"time_elapsed":811191,"internal_node_id":"0.0-4.0-1.30","subject_id":"60fc6dfc6c5da4a24238a7e9","study_id":"6197b3f67c2b5cd3b6d9596a","session_id":"6197b54706fb59370dd4d3a9","condition":"contingent","relevant_dimensions":["antennae","pattern"],"bee_group":{"antennae":"A","wings":"X","pattern":"D","legs":"X"},"bonus":1.200000000000001},{"rt":2622.800000011921,"stimulus":"bees-with-color/bee-B2SF.svg","response":0,"trial_type":"image-button-response","trial_index":69,"time_elapsed":813826,"internal_node_id":"0.0-4.0-0.31","subject_id":"60fc6dfc6c5da4a24238a7e9","study_id":"6197b3f67c2b5cd3b6d9596a","session_id":"6197b54706fb59370dd4d3a9","condition":"contingent","relevant_dimensions":["antennae","pattern"],"bee_group":{"antennae":"A","wings":"X","pattern":"D","legs":"X"},"action":"harvest","summary":"good-harvest","bonus":1.200000000000001},{"rt":1127.199999988079,"stimulus":"\n                    <p><b>Action: <em>harvest</em></b></p>\n                    <p>This is the bee that you just saw.</p>\n                    <img src=\"bees-with-color/bee-B2SF.svg\" width=\"200\">\n                    <p><span class=\"greenText\"><b>Successful harvest!</b></span><br>Your pay has increased by $0.02. Your bonus pay is now $0.48.</p>\n            ","response":0,"trial_type":"html-button-response","trial_index":70,"time_elapsed":814977,"internal_node_id":"0.0-4.0-1.31","subject_id":"60fc6dfc6c5da4a24238a7e9","study_id":"6197b3f67c2b5cd3b6d9596a","session_id":"6197b54706fb59370dd4d3a9","condition":"contingent","relevant_dimensions":["antennae","pattern"],"bee_group":{"antennae":"A","wings":"X","pattern":"D","legs":"X"},"bonus":1.200000000000001},{"rt":4030.099999964237,"stimulus":"bees-with-color/bee-A1DM.svg","response":1,"trial_type":"image-button-response","trial_index":71,"time_elapsed":819019,"internal_node_id":"0.0-4.0-0.32","subject_id":"60fc6dfc6c5da4a24238a7e9","study_id":"6197b3f67c2b5cd3b6d9596a","session_id":"6197b54706fb59370dd4d3a9","condition":"contingent","relevant_dimensions":["antennae","pattern"],"bee_group":{"antennae":"A","wings":"X","pattern":"D","legs":"X"},"action":"avoid","summary":"good-avoid","bonus":1.200000000000001},{"rt":1317.5999999642372,"stimulus":"\n                    <p><b>Action: <em>avoid</em></b></p>\n                    <p>This is the bee that you just saw.</p>\n                    <img src=\"bees-with-color/bee-A1DM.svg\" width=\"200\">\n                    <p><br>Your bonus pay is unchanged, and remains at $0.48.</p>\n            ","response":0,"trial_type":"html-button-response","trial_index":72,"time_elapsed":820351,"internal_node_id":"0.0-4.0-1.32","subject_id":"60fc6dfc6c5da4a24238a7e9","study_id":"6197b3f67c2b5cd3b6d9596a","session_id":"6197b54706fb59370dd4d3a9","condition":"contingent","relevant_dimensions":["antennae","pattern"],"bee_group":{"antennae":"A","wings":"X","pattern":"D","legs":"X"},"bonus":1.200000000000001},{"rt":1982.4000000357628,"stimulus":"bees-with-color/bee-A1SF.svg","response":0,"trial_type":"image-button-response","trial_index":73,"time_elapsed":822343,"internal_node_id":"0.0-4.0-0.33","subject_id":"60fc6dfc6c5da4a24238a7e9","study_id":"6197b3f67c2b5cd3b6d9596a","session_id":"6197b54706fb59370dd4d3a9","condition":"contingent","relevant_dimensions":["antennae","pattern"],"bee_group":{"antennae":"A","wings":"X","pattern":"D","legs":"X"},"action":"harvest","summary":"good-harvest","bonus":1.200000000000001},{"rt":1034.199999988079,"stimulus":"\n                    <p><b>Action: <em>harvest</em></b></p>\n                    <p>This is the bee that you just saw.</p>\n                    <img src=\"bees-with-color/bee-A1SF.svg\" width=\"200\">\n                    <p><span class=\"greenText\"><b>Successful harvest!</b></span><br>Your pay has increased by $0.02. Your bonus pay is now $0.50.</p>\n            ","response":0,"trial_type":"html-button-response","trial_index":74,"time_elapsed":823391,"internal_node_id":"0.0-4.0-1.33","subject_id":"60fc6dfc6c5da4a24238a7e9","study_id":"6197b3f67c2b5cd3b6d9596a","session_id":"6197b54706fb59370dd4d3a9","condition":"contingent","relevant_dimensions":["antennae","pattern"],"bee_group":{"antennae":"A","wings":"X","pattern":"D","legs":"X"},"bonus":1.200000000000001},{"rt":1639,"stimulus":"bees-with-color/bee-B1SM.svg","response":0,"trial_type":"image-button-response","trial_index":75,"time_elapsed":825041,"internal_node_id":"0.0-4.0-0.34","subject_id":"60fc6dfc6c5da4a24238a7e9","study_id":"6197b3f67c2b5cd3b6d9596a","session_id":"6197b54706fb59370dd4d3a9","condition":"contingent","relevant_dimensions":["antennae","pattern"],"bee_group":{"antennae":"A","wings":"X","pattern":"D","legs":"X"},"action":"harvest","summary":"good-harvest","bonus":1.200000000000001},{"rt":883.1999999880791,"stimulus":"\n                    <p><b>Action: <em>harvest</em></b></p>\n                    <p>This is the bee that you just saw.</p>\n                    <img src=\"bees-with-color/bee-B1SM.svg\" width=\"200\">\n                    <p><span class=\"greenText\"><b>Successful harvest!</b></span><br>Your pay has increased by $0.02. Your bonus pay is now $0.52.</p>\n            ","response":0,"trial_type":"html-button-response","trial_index":76,"time_elapsed":825940,"internal_node_id":"0.0-4.0-1.34","subject_id":"60fc6dfc6c5da4a24238a7e9","study_id":"6197b3f67c2b5cd3b6d9596a","session_id":"6197b54706fb59370dd4d3a9","condition":"contingent","relevant_dimensions":["antennae","pattern"],"bee_group":{"antennae":"A","wings":"X","pattern":"D","legs":"X"},"bonus":1.200000000000001},{"rt":1496.1000000238419,"stimulus":"bees-with-color/bee-A2SM.svg","response":0,"trial_type":"image-button-response","trial_index":77,"time_elapsed":827449,"internal_node_id":"0.0-4.0-0.35","subject_id":"60fc6dfc6c5da4a24238a7e9","study_id":"6197b3f67c2b5cd3b6d9596a","session_id":"6197b54706fb59370dd4d3a9","condition":"contingent","relevant_dimensions":["antennae","pattern"],"bee_group":{"antennae":"A","wings":"X","pattern":"D","legs":"X"},"action":"harvest","summary":"good-harvest","bonus":1.200000000000001},{"rt":1018,"stimulus":"\n                    <p><b>Action: <em>harvest</em></b></p>\n                    <p>This is the bee that you just saw.</p>\n                    <img src=\"bees-with-color/bee-A2SM.svg\" width=\"200\">\n                    <p><span class=\"greenText\"><b>Successful harvest!</b></span><br>Your pay has increased by $0.02. Your bonus pay is now $0.54.</p>\n            ","response":0,"trial_type":"html-button-response","trial_index":78,"time_elapsed":828476,"internal_node_id":"0.0-4.0-1.35","subject_id":"60fc6dfc6c5da4a24238a7e9","study_id":"6197b3f67c2b5cd3b6d9596a","session_id":"6197b54706fb59370dd4d3a9","condition":"contingent","relevant_dimensions":["antennae","pattern"],"bee_group":{"antennae":"A","wings":"X","pattern":"D","legs":"X"},"bonus":1.200000000000001},{"rt":1213.199999988079,"stimulus":"bees-with-color/bee-B1SF.svg","response":0,"trial_type":"image-button-response","trial_index":79,"time_elapsed":829706,"internal_node_id":"0.0-4.0-0.36","subject_id":"60fc6dfc6c5da4a24238a7e9","study_id":"6197b3f67c2b5cd3b6d9596a","session_id":"6197b54706fb59370dd4d3a9","condition":"contingent","relevant_dimensions":["antennae","pattern"],"bee_group":{"antennae":"A","wings":"X","pattern":"D","legs":"X"},"action":"harvest","summary":"good-harvest","bonus":1.200000000000001},{"rt":921.5,"stimulus":"\n                    <p><b>Action: <em>harvest</em></b></p>\n                    <p>This is the bee that you just saw.</p>\n                    <img src=\"bees-with-color/bee-B1SF.svg\" width=\"200\">\n                    <p><span class=\"greenText\"><b>Successful harvest!</b></span><br>Your pay has increased by $0.02. Your bonus pay is now $0.56.</p>\n            ","response":0,"trial_type":"html-button-response","trial_index":80,"time_elapsed":830647,"internal_node_id":"0.0-4.0-1.36","subject_id":"60fc6dfc6c5da4a24238a7e9","study_id":"6197b3f67c2b5cd3b6d9596a","session_id":"6197b54706fb59370dd4d3a9","condition":"contingent","relevant_dimensions":["antennae","pattern"],"bee_group":{"antennae":"A","wings":"X","pattern":"D","legs":"X"},"bonus":1.200000000000001},{"rt":1145.5,"stimulus":"bees-with-color/bee-B2SM.svg","response":0,"trial_type":"image-button-response","trial_index":81,"time_elapsed":831806,"internal_node_id":"0.0-4.0-0.37","subject_id":"60fc6dfc6c5da4a24238a7e9","study_id":"6197b3f67c2b5cd3b6d9596a","session_id":"6197b54706fb59370dd4d3a9","condition":"contingent","relevant_dimensions":["antennae","pattern"],"bee_group":{"antennae":"A","wings":"X","pattern":"D","legs":"X"},"action":"harvest","summary":"good-harvest","bonus":1.200000000000001},{"rt":910.8000000119209,"stimulus":"\n                    <p><b>Action: <em>harvest</em></b></p>\n                    <p>This is the bee that you just saw.</p>\n                    <img src=\"bees-with-color/bee-B2SM.svg\" width=\"200\">\n                    <p><span class=\"greenText\"><b>Successful harvest!</b></span><br>Your pay has increased by $0.02. Your bonus pay is now $0.58.</p>\n            ","response":0,"trial_type":"html-button-response","trial_index":82,"time_elapsed":832721,"internal_node_id":"0.0-4.0-1.37","subject_id":"60fc6dfc6c5da4a24238a7e9","study_id":"6197b3f67c2b5cd3b6d9596a","session_id":"6197b54706fb59370dd4d3a9","condition":"contingent","relevant_dimensions":["antennae","pattern"],"bee_group":{"antennae":"A","wings":"X","pattern":"D","legs":"X"},"bonus":1.200000000000001},{"rt":1276.800000011921,"stimulus":"bees-with-color/bee-B2SF.svg","response":0,"trial_type":"image-button-response","trial_index":83,"time_elapsed":834003,"internal_node_id":"0.0-4.0-0.38","subject_id":"60fc6dfc6c5da4a24238a7e9","study_id":"6197b3f67c2b5cd3b6d9596a","session_id":"6197b54706fb59370dd4d3a9","condition":"contingent","relevant_dimensions":["antennae","pattern"],"bee_group":{"antennae":"A","wings":"X","pattern":"D","legs":"X"},"action":"harvest","summary":"good-harvest","bonus":1.200000000000001},{"rt":1116.199999988079,"stimulus":"\n                    <p><b>Action: <em>harvest</em></b></p>\n                    <p>This is the bee that you just saw.</p>\n                    <img src=\"bees-with-color/bee-B2SF.svg\" width=\"200\">\n                    <p><span class=\"greenText\"><b>Successful harvest!</b></span><br>Your pay has increased by $0.02. Your bonus pay is now $0.60.</p>\n            ","response":0,"trial_type":"html-button-response","trial_index":84,"time_elapsed":835125,"internal_node_id":"0.0-4.0-1.38","subject_id":"60fc6dfc6c5da4a24238a7e9","study_id":"6197b3f67c2b5cd3b6d9596a","session_id":"6197b54706fb59370dd4d3a9","condition":"contingent","relevant_dimensions":["antennae","pattern"],"bee_group":{"antennae":"A","wings":"X","pattern":"D","legs":"X"},"bonus":1.200000000000001},{"rt":2876.399999976158,"stimulus":"bees-with-color/bee-A2DF.svg","response":1,"trial_type":"image-button-response","trial_index":85,"time_elapsed":838013,"internal_node_id":"0.0-4.0-0.39","subject_id":"60fc6dfc6c5da4a24238a7e9","study_id":"6197b3f67c2b5cd3b6d9596a","session_id":"6197b54706fb59370dd4d3a9","condition":"contingent","relevant_dimensions":["antennae","pattern"],"bee_group":{"antennae":"A","wings":"X","pattern":"D","legs":"X"},"action":"avoid","summary":"good-avoid","bonus":1.200000000000001},{"rt":904.5,"stimulus":"\n                    <p><b>Action: <em>avoid</em></b></p>\n                    <p>This is the bee that you just saw.</p>\n                    <img src=\"bees-with-color/bee-A2DF.svg\" width=\"200\">\n                    <p><br>Your bonus pay is unchanged, and remains at $0.60.</p>\n            ","response":0,"trial_type":"html-button-response","trial_index":86,"time_elapsed":838930,"internal_node_id":"0.0-4.0-1.39","subject_id":"60fc6dfc6c5da4a24238a7e9","study_id":"6197b3f67c2b5cd3b6d9596a","session_id":"6197b54706fb59370dd4d3a9","condition":"contingent","relevant_dimensions":["antennae","pattern"],"bee_group":{"antennae":"A","wings":"X","pattern":"D","legs":"X"},"bonus":1.200000000000001},{"rt":1950.300000011921,"stimulus":"bees-with-color/bee-A2SF.svg","response":0,"trial_type":"image-button-response","trial_index":87,"time_elapsed":840896,"internal_node_id":"0.0-4.0-0.40","subject_id":"60fc6dfc6c5da4a24238a7e9","study_id":"6197b3f67c2b5cd3b6d9596a","session_id":"6197b54706fb59370dd4d3a9","condition":"contingent","relevant_dimensions":["antennae","pattern"],"bee_group":{"antennae":"A","wings":"X","pattern":"D","legs":"X"},"action":"harvest","summary":"good-harvest","bonus":1.200000000000001},{"rt":1361.5999999642372,"stimulus":"\n                    <p><b>Action: <em>harvest</em></b></p>\n                    <p>This is the bee that you just saw.</p>\n                    <img src=\"bees-with-color/bee-A2SF.svg\" width=\"200\">\n                    <p><span class=\"greenText\"><b>Successful harvest!</b></span><br>Your pay has increased by $0.02. Your bonus pay is now $0.62.</p>\n            ","response":0,"trial_type":"html-button-response","trial_index":88,"time_elapsed":842266,"internal_node_id":"0.0-4.0-1.40","subject_id":"60fc6dfc6c5da4a24238a7e9","study_id":"6197b3f67c2b5cd3b6d9596a","session_id":"6197b54706fb59370dd4d3a9","condition":"contingent","relevant_dimensions":["antennae","pattern"],"bee_group":{"antennae":"A","wings":"X","pattern":"D","legs":"X"},"bonus":1.200000000000001},{"rt":5427.700000047684,"stimulus":"bees-with-color/bee-B2DF.svg","response":1,"trial_type":"image-button-response","trial_index":89,"time_elapsed":847717,"internal_node_id":"0.0-4.0-0.41","subject_id":"60fc6dfc6c5da4a24238a7e9","study_id":"6197b3f67c2b5cd3b6d9596a","session_id":"6197b54706fb59370dd4d3a9","condition":"contingent","relevant_dimensions":["antennae","pattern"],"bee_group":{"antennae":"A","wings":"X","pattern":"D","legs":"X"},"action":"avoid","summary":"bad-avoid","bonus":1.200000000000001},{"rt":1252.300000011921,"stimulus":"\n                    <p><b>Action: <em>avoid</em></b></p>\n                    <p>This is the bee that you just saw.</p>\n                    <img src=\"bees-with-color/bee-B2DF.svg\" width=\"200\">\n                    <p><br>Your bonus pay is unchanged, and remains at $0.62.</p>\n            ","response":0,"trial_type":"html-button-response","trial_index":90,"time_elapsed":848980,"internal_node_id":"0.0-4.0-1.41","subject_id":"60fc6dfc6c5da4a24238a7e9","study_id":"6197b3f67c2b5cd3b6d9596a","session_id":"6197b54706fb59370dd4d3a9","condition":"contingent","relevant_dimensions":["antennae","pattern"],"bee_group":{"antennae":"A","wings":"X","pattern":"D","legs":"X"},"bonus":1.200000000000001},{"rt":2144,"stimulus":"bees-with-color/bee-A2DM.svg","response":1,"trial_type":"image-button-response","trial_index":91,"time_elapsed":851142,"internal_node_id":"0.0-4.0-0.42","subject_id":"60fc6dfc6c5da4a24238a7e9","study_id":"6197b3f67c2b5cd3b6d9596a","session_id":"6197b54706fb59370dd4d3a9","condition":"contingent","relevant_dimensions":["antennae","pattern"],"bee_group":{"antennae":"A","wings":"X","pattern":"D","legs":"X"},"action":"avoid","summary":"good-avoid","bonus":1.200000000000001},{"rt":1699.7999999523163,"stimulus":"\n                    <p><b>Action: <em>avoid</em></b></p>\n                    <p>This is the bee that you just saw.</p>\n                    <img src=\"bees-with-color/bee-A2DM.svg\" width=\"200\">\n                    <p><br>Your bonus pay is unchanged, and remains at $0.62.</p>\n            ","response":0,"trial_type":"html-button-response","trial_index":92,"time_elapsed":852856,"internal_node_id":"0.0-4.0-1.42","subject_id":"60fc6dfc6c5da4a24238a7e9","study_id":"6197b3f67c2b5cd3b6d9596a","session_id":"6197b54706fb59370dd4d3a9","condition":"contingent","relevant_dimensions":["antennae","pattern"],"bee_group":{"antennae":"A","wings":"X","pattern":"D","legs":"X"},"bonus":1.200000000000001},{"rt":1592.1000000238419,"stimulus":"bees-with-color/bee-A1SM.svg","response":0,"trial_type":"image-button-response","trial_index":93,"time_elapsed":854454,"internal_node_id":"0.0-4.0-0.43","subject_id":"60fc6dfc6c5da4a24238a7e9","study_id":"6197b3f67c2b5cd3b6d9596a","session_id":"6197b54706fb59370dd4d3a9","condition":"contingent","relevant_dimensions":["antennae","pattern"],"bee_group":{"antennae":"A","wings":"X","pattern":"D","legs":"X"},"action":"harvest","summary":"good-harvest","bonus":1.200000000000001},{"rt":960.1999999880791,"stimulus":"\n                    <p><b>Action: <em>harvest</em></b></p>\n                    <p>This is the bee that you just saw.</p>\n                    <img src=\"bees-with-color/bee-A1SM.svg\" width=\"200\">\n                    <p><span class=\"greenText\"><b>Successful harvest!</b></span><br>Your pay has increased by $0.02. Your bonus pay is now $0.64.</p>\n            ","response":0,"trial_type":"html-button-response","trial_index":94,"time_elapsed":855420,"internal_node_id":"0.0-4.0-1.43","subject_id":"60fc6dfc6c5da4a24238a7e9","study_id":"6197b3f67c2b5cd3b6d9596a","session_id":"6197b54706fb59370dd4d3a9","condition":"contingent","relevant_dimensions":["antennae","pattern"],"bee_group":{"antennae":"A","wings":"X","pattern":"D","legs":"X"},"bonus":1.200000000000001},{"rt":4750.699999988079,"stimulus":"bees-with-color/bee-A1DF.svg","response":1,"trial_type":"image-button-response","trial_index":95,"time_elapsed":860180,"internal_node_id":"0.0-4.0-0.44","subject_id":"60fc6dfc6c5da4a24238a7e9","study_id":"6197b3f67c2b5cd3b6d9596a","session_id":"6197b54706fb59370dd4d3a9","condition":"contingent","relevant_dimensions":["antennae","pattern"],"bee_group":{"antennae":"A","wings":"X","pattern":"D","legs":"X"},"action":"avoid","summary":"good-avoid","bonus":1.200000000000001},{"rt":1235,"stimulus":"\n                    <p><b>Action: <em>avoid</em></b></p>\n                    <p>This is the bee that you just saw.</p>\n                    <img src=\"bees-with-color/bee-A1DF.svg\" width=\"200\">\n                    <p><br>Your bonus pay is unchanged, and remains at $0.64.</p>\n            ","response":0,"trial_type":"html-button-response","trial_index":96,"time_elapsed":861420,"internal_node_id":"0.0-4.0-1.44","subject_id":"60fc6dfc6c5da4a24238a7e9","study_id":"6197b3f67c2b5cd3b6d9596a","session_id":"6197b54706fb59370dd4d3a9","condition":"contingent","relevant_dimensions":["antennae","pattern"],"bee_group":{"antennae":"A","wings":"X","pattern":"D","legs":"X"},"bonus":1.200000000000001},{"rt":4858.899999976158,"stimulus":"bees-with-color/bee-B1DF.svg","response":0,"trial_type":"image-button-response","trial_index":97,"time_elapsed":866288,"internal_node_id":"0.0-4.0-0.45","subject_id":"60fc6dfc6c5da4a24238a7e9","study_id":"6197b3f67c2b5cd3b6d9596a","session_id":"6197b54706fb59370dd4d3a9","condition":"contingent","relevant_dimensions":["antennae","pattern"],"bee_group":{"antennae":"A","wings":"X","pattern":"D","legs":"X"},"action":"harvest","summary":"good-harvest","bonus":1.200000000000001},{"rt":1087.1000000238419,"stimulus":"\n                    <p><b>Action: <em>harvest</em></b></p>\n                    <p>This is the bee that you just saw.</p>\n                    <img src=\"bees-with-color/bee-B1DF.svg\" width=\"200\">\n                    <p><span class=\"greenText\"><b>Successful harvest!</b></span><br>Your pay has increased by $0.02. Your bonus pay is now $0.66.</p>\n            ","response":0,"trial_type":"html-button-response","trial_index":98,"time_elapsed":867390,"internal_node_id":"0.0-4.0-1.45","subject_id":"60fc6dfc6c5da4a24238a7e9","study_id":"6197b3f67c2b5cd3b6d9596a","session_id":"6197b54706fb59370dd4d3a9","condition":"contingent","relevant_dimensions":["antennae","pattern"],"bee_group":{"antennae":"A","wings":"X","pattern":"D","legs":"X"},"bonus":1.200000000000001},{"rt":1903.9000000357628,"stimulus":"bees-with-color/bee-B2DM.svg","response":1,"trial_type":"image-button-response","trial_index":99,"time_elapsed":869315,"internal_node_id":"0.0-4.0-0.46","subject_id":"60fc6dfc6c5da4a24238a7e9","study_id":"6197b3f67c2b5cd3b6d9596a","session_id":"6197b54706fb59370dd4d3a9","condition":"contingent","relevant_dimensions":["antennae","pattern"],"bee_group":{"antennae":"A","wings":"X","pattern":"D","legs":"X"},"action":"avoid","summary":"bad-avoid","bonus":1.200000000000001},{"rt":1222,"stimulus":"\n                    <p><b>Action: <em>avoid</em></b></p>\n                    <p>This is the bee that you just saw.</p>\n                    <img src=\"bees-with-color/bee-B2DM.svg\" width=\"200\">\n                    <p><br>Your bonus pay is unchanged, and remains at $0.66.</p>\n            ","response":0,"trial_type":"html-button-response","trial_index":100,"time_elapsed":870546,"internal_node_id":"0.0-4.0-1.46","subject_id":"60fc6dfc6c5da4a24238a7e9","study_id":"6197b3f67c2b5cd3b6d9596a","session_id":"6197b54706fb59370dd4d3a9","condition":"contingent","relevant_dimensions":["antennae","pattern"],"bee_group":{"antennae":"A","wings":"X","pattern":"D","legs":"X"},"bonus":1.200000000000001},{"rt":1136.4000000357628,"stimulus":"bees-with-color/bee-B1DM.svg","response":1,"trial_type":"image-button-response","trial_index":101,"time_elapsed":871699,"internal_node_id":"0.0-4.0-0.47","subject_id":"60fc6dfc6c5da4a24238a7e9","study_id":"6197b3f67c2b5cd3b6d9596a","session_id":"6197b54706fb59370dd4d3a9","condition":"contingent","relevant_dimensions":["antennae","pattern"],"bee_group":{"antennae":"A","wings":"X","pattern":"D","legs":"X"},"action":"avoid","summary":"bad-avoid","bonus":1.200000000000001},{"rt":943.5999999642372,"stimulus":"\n                    <p><b>Action: <em>avoid</em></b></p>\n                    <p>This is the bee that you just saw.</p>\n                    <img src=\"bees-with-color/bee-B1DM.svg\" width=\"200\">\n                    <p><br>Your bonus pay is unchanged, and remains at $0.66.</p>\n            ","response":0,"trial_type":"html-button-response","trial_index":102,"time_elapsed":872653,"internal_node_id":"0.0-4.0-1.47","subject_id":"60fc6dfc6c5da4a24238a7e9","study_id":"6197b3f67c2b5cd3b6d9596a","session_id":"6197b54706fb59370dd4d3a9","condition":"contingent","relevant_dimensions":["antennae","pattern"],"bee_group":{"antennae":"A","wings":"X","pattern":"D","legs":"X"},"bonus":1.200000000000001},{"rt":2483,"stimulus":"bees-with-color/bee-A1DF.svg","response":1,"trial_type":"image-button-response","trial_index":103,"time_elapsed":875142,"internal_node_id":"0.0-4.0-0.48","subject_id":"60fc6dfc6c5da4a24238a7e9","study_id":"6197b3f67c2b5cd3b6d9596a","session_id":"6197b54706fb59370dd4d3a9","condition":"contingent","relevant_dimensions":["antennae","pattern"],"bee_group":{"antennae":"A","wings":"X","pattern":"D","legs":"X"},"action":"avoid","summary":"good-avoid","bonus":1.200000000000001},{"rt":1008.1999999880791,"stimulus":"\n                    <p><b>Action: <em>avoid</em></b></p>\n                    <p>This is the bee that you just saw.</p>\n                    <img src=\"bees-with-color/bee-A1DF.svg\" width=\"200\">\n                    <p><br>Your bonus pay is unchanged, and remains at $0.66.</p>\n            ","response":0,"trial_type":"html-button-response","trial_index":104,"time_elapsed":876163,"internal_node_id":"0.0-4.0-1.48","subject_id":"60fc6dfc6c5da4a24238a7e9","study_id":"6197b3f67c2b5cd3b6d9596a","session_id":"6197b54706fb59370dd4d3a9","condition":"contingent","relevant_dimensions":["antennae","pattern"],"bee_group":{"antennae":"A","wings":"X","pattern":"D","legs":"X"},"bonus":1.200000000000001},{"rt":1368.300000011921,"stimulus":"bees-with-color/bee-A2SF.svg","response":0,"trial_type":"image-button-response","trial_index":105,"time_elapsed":877546,"internal_node_id":"0.0-4.0-0.49","subject_id":"60fc6dfc6c5da4a24238a7e9","study_id":"6197b3f67c2b5cd3b6d9596a","session_id":"6197b54706fb59370dd4d3a9","condition":"contingent","relevant_dimensions":["antennae","pattern"],"bee_group":{"antennae":"A","wings":"X","pattern":"D","legs":"X"},"action":"harvest","summary":"good-harvest","bonus":1.200000000000001},{"rt":1192.800000011921,"stimulus":"\n                    <p><b>Action: <em>harvest</em></b></p>\n                    <p>This is the bee that you just saw.</p>\n                    <img src=\"bees-with-color/bee-A2SF.svg\" width=\"200\">\n                    <p><span class=\"greenText\"><b>Successful harvest!</b></span><br>Your pay has increased by $0.02. Your bonus pay is now $0.68.</p>\n            ","response":0,"trial_type":"html-button-response","trial_index":106,"time_elapsed":878752,"internal_node_id":"0.0-4.0-1.49","subject_id":"60fc6dfc6c5da4a24238a7e9","study_id":"6197b3f67c2b5cd3b6d9596a","session_id":"6197b54706fb59370dd4d3a9","condition":"contingent","relevant_dimensions":["antennae","pattern"],"bee_group":{"antennae":"A","wings":"X","pattern":"D","legs":"X"},"bonus":1.200000000000001},{"rt":1642.6000000238419,"stimulus":"bees-with-color/bee-B2SF.svg","response":0,"trial_type":"image-button-response","trial_index":107,"time_elapsed":880405,"internal_node_id":"0.0-4.0-0.50","subject_id":"60fc6dfc6c5da4a24238a7e9","study_id":"6197b3f67c2b5cd3b6d9596a","session_id":"6197b54706fb59370dd4d3a9","condition":"contingent","relevant_dimensions":["antennae","pattern"],"bee_group":{"antennae":"A","wings":"X","pattern":"D","legs":"X"},"action":"harvest","summary":"good-harvest","bonus":1.200000000000001},{"rt":952.3000000119209,"stimulus":"\n                    <p><b>Action: <em>harvest</em></b></p>\n                    <p>This is the bee that you just saw.</p>\n                    <img src=\"bees-with-color/bee-B2SF.svg\" width=\"200\">\n                    <p><span class=\"greenText\"><b>Successful harvest!</b></span><br>Your pay has increased by $0.02. Your bonus pay is now $0.70.</p>\n            ","response":0,"trial_type":"html-button-response","trial_index":108,"time_elapsed":881372,"internal_node_id":"0.0-4.0-1.50","subject_id":"60fc6dfc6c5da4a24238a7e9","study_id":"6197b3f67c2b5cd3b6d9596a","session_id":"6197b54706fb59370dd4d3a9","condition":"contingent","relevant_dimensions":["antennae","pattern"],"bee_group":{"antennae":"A","wings":"X","pattern":"D","legs":"X"},"bonus":1.200000000000001},{"rt":1504.2000000476837,"stimulus":"bees-with-color/bee-B1SM.svg","response":0,"trial_type":"image-button-response","trial_index":109,"time_elapsed":882887,"internal_node_id":"0.0-4.0-0.51","subject_id":"60fc6dfc6c5da4a24238a7e9","study_id":"6197b3f67c2b5cd3b6d9596a","session_id":"6197b54706fb59370dd4d3a9","condition":"contingent","relevant_dimensions":["antennae","pattern"],"bee_group":{"antennae":"A","wings":"X","pattern":"D","legs":"X"},"action":"harvest","summary":"good-harvest","bonus":1.200000000000001},{"rt":931.5999999642372,"stimulus":"\n                    <p><b>Action: <em>harvest</em></b></p>\n                    <p>This is the bee that you just saw.</p>\n                    <img src=\"bees-with-color/bee-B1SM.svg\" width=\"200\">\n                    <p><span class=\"greenText\"><b>Successful harvest!</b></span><br>Your pay has increased by $0.02. Your bonus pay is now $0.72.</p>\n            ","response":0,"trial_type":"html-button-response","trial_index":110,"time_elapsed":883835,"internal_node_id":"0.0-4.0-1.51","subject_id":"60fc6dfc6c5da4a24238a7e9","study_id":"6197b3f67c2b5cd3b6d9596a","session_id":"6197b54706fb59370dd4d3a9","condition":"contingent","relevant_dimensions":["antennae","pattern"],"bee_group":{"antennae":"A","wings":"X","pattern":"D","legs":"X"},"bonus":1.200000000000001},{"rt":2300,"stimulus":"bees-with-color/bee-A1DM.svg","response":1,"trial_type":"image-button-response","trial_index":111,"time_elapsed":886150,"internal_node_id":"0.0-4.0-0.52","subject_id":"60fc6dfc6c5da4a24238a7e9","study_id":"6197b3f67c2b5cd3b6d9596a","session_id":"6197b54706fb59370dd4d3a9","condition":"contingent","relevant_dimensions":["antennae","pattern"],"bee_group":{"antennae":"A","wings":"X","pattern":"D","legs":"X"},"action":"avoid","summary":"good-avoid","bonus":1.200000000000001},{"rt":1379.699999988079,"stimulus":"\n                    <p><b>Action: <em>avoid</em></b></p>\n                    <p>This is the bee that you just saw.</p>\n                    <img src=\"bees-with-color/bee-A1DM.svg\" width=\"200\">\n                    <p><br>Your bonus pay is unchanged, and remains at $0.72.</p>\n            ","response":0,"trial_type":"html-button-response","trial_index":112,"time_elapsed":887539,"internal_node_id":"0.0-4.0-1.52","subject_id":"60fc6dfc6c5da4a24238a7e9","study_id":"6197b3f67c2b5cd3b6d9596a","session_id":"6197b54706fb59370dd4d3a9","condition":"contingent","relevant_dimensions":["antennae","pattern"],"bee_group":{"antennae":"A","wings":"X","pattern":"D","legs":"X"},"bonus":1.200000000000001},{"rt":1702.1000000238419,"stimulus":"bees-with-color/bee-B1SF.svg","response":0,"trial_type":"image-button-response","trial_index":113,"time_elapsed":889253,"internal_node_id":"0.0-4.0-0.53","subject_id":"60fc6dfc6c5da4a24238a7e9","study_id":"6197b3f67c2b5cd3b6d9596a","session_id":"6197b54706fb59370dd4d3a9","condition":"contingent","relevant_dimensions":["antennae","pattern"],"bee_group":{"antennae":"A","wings":"X","pattern":"D","legs":"X"},"action":"harvest","summary":"good-harvest","bonus":1.200000000000001},{"rt":1027.699999988079,"stimulus":"\n                    <p><b>Action: <em>harvest</em></b></p>\n                    <p>This is the bee that you just saw.</p>\n                    <img src=\"bees-with-color/bee-B1SF.svg\" width=\"200\">\n                    <p><span class=\"greenText\"><b>Successful harvest!</b></span><br>Your pay has increased by $0.02. Your bonus pay is now $0.74.</p>\n            ","response":0,"trial_type":"html-button-response","trial_index":114,"time_elapsed":890296,"internal_node_id":"0.0-4.0-1.53","subject_id":"60fc6dfc6c5da4a24238a7e9","study_id":"6197b3f67c2b5cd3b6d9596a","session_id":"6197b54706fb59370dd4d3a9","condition":"contingent","relevant_dimensions":["antennae","pattern"],"bee_group":{"antennae":"A","wings":"X","pattern":"D","legs":"X"},"bonus":1.200000000000001},{"rt":1905.699999988079,"stimulus":"bees-with-color/bee-A2SM.svg","response":0,"trial_type":"image-button-response","trial_index":115,"time_elapsed":892218,"internal_node_id":"0.0-4.0-0.54","subject_id":"60fc6dfc6c5da4a24238a7e9","study_id":"6197b3f67c2b5cd3b6d9596a","session_id":"6197b54706fb59370dd4d3a9","condition":"contingent","relevant_dimensions":["antennae","pattern"],"bee_group":{"antennae":"A","wings":"X","pattern":"D","legs":"X"},"action":"harvest","summary":"good-harvest","bonus":1.200000000000001},{"rt":1049.699999988079,"stimulus":"\n                    <p><b>Action: <em>harvest</em></b></p>\n                    <p>This is the bee that you just saw.</p>\n                    <img src=\"bees-with-color/bee-A2SM.svg\" width=\"200\">\n                    <p><span class=\"greenText\"><b>Successful harvest!</b></span><br>Your pay has increased by $0.02. Your bonus pay is now $0.76.</p>\n            ","response":0,"trial_type":"html-button-response","trial_index":116,"time_elapsed":893291,"internal_node_id":"0.0-4.0-1.54","subject_id":"60fc6dfc6c5da4a24238a7e9","study_id":"6197b3f67c2b5cd3b6d9596a","session_id":"6197b54706fb59370dd4d3a9","condition":"contingent","relevant_dimensions":["antennae","pattern"],"bee_group":{"antennae":"A","wings":"X","pattern":"D","legs":"X"},"bonus":1.200000000000001},{"rt":1869.5999999642372,"stimulus":"bees-with-color/bee-B2SM.svg","response":0,"trial_type":"image-button-response","trial_index":117,"time_elapsed":895170,"internal_node_id":"0.0-4.0-0.55","subject_id":"60fc6dfc6c5da4a24238a7e9","study_id":"6197b3f67c2b5cd3b6d9596a","session_id":"6197b54706fb59370dd4d3a9","condition":"contingent","relevant_dimensions":["antennae","pattern"],"bee_group":{"antennae":"A","wings":"X","pattern":"D","legs":"X"},"action":"harvest","summary":"good-harvest","bonus":1.200000000000001},{"rt":1307.5,"stimulus":"\n                    <p><b>Action: <em>harvest</em></b></p>\n                    <p>This is the bee that you just saw.</p>\n                    <img src=\"bees-with-color/bee-B2SM.svg\" width=\"200\">\n                    <p><span class=\"greenText\"><b>Successful harvest!</b></span><br>Your pay has increased by $0.02. Your bonus pay is now $0.78.</p>\n            ","response":0,"trial_type":"html-button-response","trial_index":118,"time_elapsed":896484,"internal_node_id":"0.0-4.0-1.55","subject_id":"60fc6dfc6c5da4a24238a7e9","study_id":"6197b3f67c2b5cd3b6d9596a","session_id":"6197b54706fb59370dd4d3a9","condition":"contingent","relevant_dimensions":["antennae","pattern"],"bee_group":{"antennae":"A","wings":"X","pattern":"D","legs":"X"},"bonus":1.200000000000001},{"rt":2206.800000011921,"stimulus":"bees-with-color/bee-A2DF.svg","response":1,"trial_type":"image-button-response","trial_index":119,"time_elapsed":898697,"internal_node_id":"0.0-4.0-0.56","subject_id":"60fc6dfc6c5da4a24238a7e9","study_id":"6197b3f67c2b5cd3b6d9596a","session_id":"6197b54706fb59370dd4d3a9","condition":"contingent","relevant_dimensions":["antennae","pattern"],"bee_group":{"antennae":"A","wings":"X","pattern":"D","legs":"X"},"action":"avoid","summary":"good-avoid","bonus":1.200000000000001},{"rt":853.6999999880791,"stimulus":"\n                    <p><b>Action: <em>avoid</em></b></p>\n                    <p>This is the bee that you just saw.</p>\n                    <img src=\"bees-with-color/bee-A2DF.svg\" width=\"200\">\n                    <p><br>Your bonus pay is unchanged, and remains at $0.78.</p>\n            ","response":0,"trial_type":"html-button-response","trial_index":120,"time_elapsed":899557,"internal_node_id":"0.0-4.0-1.56","subject_id":"60fc6dfc6c5da4a24238a7e9","study_id":"6197b3f67c2b5cd3b6d9596a","session_id":"6197b54706fb59370dd4d3a9","condition":"contingent","relevant_dimensions":["antennae","pattern"],"bee_group":{"antennae":"A","wings":"X","pattern":"D","legs":"X"},"bonus":1.200000000000001},{"rt":2014,"stimulus":"bees-with-color/bee-A1SM.svg","response":0,"trial_type":"image-button-response","trial_index":121,"time_elapsed":901585,"internal_node_id":"0.0-4.0-0.57","subject_id":"60fc6dfc6c5da4a24238a7e9","study_id":"6197b3f67c2b5cd3b6d9596a","session_id":"6197b54706fb59370dd4d3a9","condition":"contingent","relevant_dimensions":["antennae","pattern"],"bee_group":{"antennae":"A","wings":"X","pattern":"D","legs":"X"},"action":"harvest","summary":"good-harvest","bonus":1.200000000000001},{"rt":1290.199999988079,"stimulus":"\n                    <p><b>Action: <em>harvest</em></b></p>\n                    <p>This is the bee that you just saw.</p>\n                    <img src=\"bees-with-color/bee-A1SM.svg\" width=\"200\">\n                    <p><span class=\"greenText\"><b>Successful harvest!</b></span><br>Your pay has increased by $0.02. Your bonus pay is now $0.80.</p>\n            ","response":0,"trial_type":"html-button-response","trial_index":122,"time_elapsed":902895,"internal_node_id":"0.0-4.0-1.57","subject_id":"60fc6dfc6c5da4a24238a7e9","study_id":"6197b3f67c2b5cd3b6d9596a","session_id":"6197b54706fb59370dd4d3a9","condition":"contingent","relevant_dimensions":["antennae","pattern"],"bee_group":{"antennae":"A","wings":"X","pattern":"D","legs":"X"},"bonus":1.200000000000001},{"rt":3751.800000011921,"stimulus":"bees-with-color/bee-A2DM.svg","response":1,"trial_type":"image-button-response","trial_index":123,"time_elapsed":906656,"internal_node_id":"0.0-4.0-0.58","subject_id":"60fc6dfc6c5da4a24238a7e9","study_id":"6197b3f67c2b5cd3b6d9596a","session_id":"6197b54706fb59370dd4d3a9","condition":"contingent","relevant_dimensions":["antennae","pattern"],"bee_group":{"antennae":"A","wings":"X","pattern":"D","legs":"X"},"action":"avoid","summary":"good-avoid","bonus":1.200000000000001},{"rt":2903,"stimulus":"\n                    <p><b>Action: <em>avoid</em></b></p>\n                    <p>This is the bee that you just saw.</p>\n                    <img src=\"bees-with-color/bee-A2DM.svg\" width=\"200\">\n                    <p><br>Your bonus pay is unchanged, and remains at $0.80.</p>\n            ","response":0,"trial_type":"html-button-response","trial_index":124,"time_elapsed":909575,"internal_node_id":"0.0-4.0-1.58","subject_id":"60fc6dfc6c5da4a24238a7e9","study_id":"6197b3f67c2b5cd3b6d9596a","session_id":"6197b54706fb59370dd4d3a9","condition":"contingent","relevant_dimensions":["antennae","pattern"],"bee_group":{"antennae":"A","wings":"X","pattern":"D","legs":"X"},"bonus":1.200000000000001},{"rt":3667.100000023842,"stimulus":"bees-with-color/bee-B2DF.svg","response":1,"trial_type":"image-button-response","trial_index":125,"time_elapsed":913254,"internal_node_id":"0.0-4.0-0.59","subject_id":"60fc6dfc6c5da4a24238a7e9","study_id":"6197b3f67c2b5cd3b6d9596a","session_id":"6197b54706fb59370dd4d3a9","condition":"contingent","relevant_dimensions":["antennae","pattern"],"bee_group":{"antennae":"A","wings":"X","pattern":"D","legs":"X"},"action":"avoid","summary":"bad-avoid","bonus":1.200000000000001},{"rt":1128.9000000357628,"stimulus":"\n                    <p><b>Action: <em>avoid</em></b></p>\n                    <p>This is the bee that you just saw.</p>\n                    <img src=\"bees-with-color/bee-B2DF.svg\" width=\"200\">\n                    <p><br>Your bonus pay is unchanged, and remains at $0.80.</p>\n            ","response":0,"trial_type":"html-button-response","trial_index":126,"time_elapsed":914397,"internal_node_id":"0.0-4.0-1.59","subject_id":"60fc6dfc6c5da4a24238a7e9","study_id":"6197b3f67c2b5cd3b6d9596a","session_id":"6197b54706fb59370dd4d3a9","condition":"contingent","relevant_dimensions":["antennae","pattern"],"bee_group":{"antennae":"A","wings":"X","pattern":"D","legs":"X"},"bonus":1.200000000000001},{"rt":1732.5,"stimulus":"bees-with-color/bee-A1SF.svg","response":0,"trial_type":"image-button-response","trial_index":127,"time_elapsed":916138,"internal_node_id":"0.0-4.0-0.60","subject_id":"60fc6dfc6c5da4a24238a7e9","study_id":"6197b3f67c2b5cd3b6d9596a","session_id":"6197b54706fb59370dd4d3a9","condition":"contingent","relevant_dimensions":["antennae","pattern"],"bee_group":{"antennae":"A","wings":"X","pattern":"D","legs":"X"},"action":"harvest","summary":"good-harvest","bonus":1.200000000000001},{"rt":1207.8999999761581,"stimulus":"\n                    <p><b>Action: <em>harvest</em></b></p>\n                    <p>This is the bee that you just saw.</p>\n                    <img src=\"bees-with-color/bee-A1SF.svg\" width=\"200\">\n                    <p><span class=\"greenText\"><b>Successful harvest!</b></span><br>Your pay has increased by $0.02. Your bonus pay is now $0.82.</p>\n            ","response":0,"trial_type":"html-button-response","trial_index":128,"time_elapsed":917356,"internal_node_id":"0.0-4.0-1.60","subject_id":"60fc6dfc6c5da4a24238a7e9","study_id":"6197b3f67c2b5cd3b6d9596a","session_id":"6197b54706fb59370dd4d3a9","condition":"contingent","relevant_dimensions":["antennae","pattern"],"bee_group":{"antennae":"A","wings":"X","pattern":"D","legs":"X"},"bonus":1.200000000000001},{"rt":2414.5,"stimulus":"bees-with-color/bee-B2DM.svg","response":1,"trial_type":"image-button-response","trial_index":129,"time_elapsed":919784,"internal_node_id":"0.0-4.0-0.61","subject_id":"60fc6dfc6c5da4a24238a7e9","study_id":"6197b3f67c2b5cd3b6d9596a","session_id":"6197b54706fb59370dd4d3a9","condition":"contingent","relevant_dimensions":["antennae","pattern"],"bee_group":{"antennae":"A","wings":"X","pattern":"D","legs":"X"},"action":"avoid","summary":"bad-avoid","bonus":1.200000000000001},{"rt":1788.3999999761581,"stimulus":"\n                    <p><b>Action: <em>avoid</em></b></p>\n                    <p>This is the bee that you just saw.</p>\n                    <img src=\"bees-with-color/bee-B2DM.svg\" width=\"200\">\n                    <p><br>Your bonus pay is unchanged, and remains at $0.82.</p>\n            ","response":0,"trial_type":"html-button-response","trial_index":130,"time_elapsed":921588,"internal_node_id":"0.0-4.0-1.61","subject_id":"60fc6dfc6c5da4a24238a7e9","study_id":"6197b3f67c2b5cd3b6d9596a","session_id":"6197b54706fb59370dd4d3a9","condition":"contingent","relevant_dimensions":["antennae","pattern"],"bee_group":{"antennae":"A","wings":"X","pattern":"D","legs":"X"},"bonus":1.200000000000001},{"rt":1391.300000011921,"stimulus":"bees-with-color/bee-B1DM.svg","response":1,"trial_type":"image-button-response","trial_index":131,"time_elapsed":922989,"internal_node_id":"0.0-4.0-0.62","subject_id":"60fc6dfc6c5da4a24238a7e9","study_id":"6197b3f67c2b5cd3b6d9596a","session_id":"6197b54706fb59370dd4d3a9","condition":"contingent","relevant_dimensions":["antennae","pattern"],"bee_group":{"antennae":"A","wings":"X","pattern":"D","legs":"X"},"action":"avoid","summary":"bad-avoid","bonus":1.200000000000001},{"rt":4288.899999976158,"stimulus":"\n                    <p><b>Action: <em>avoid</em></b></p>\n                    <p>This is the bee that you just saw.</p>\n                    <img src=\"bees-with-color/bee-B1DM.svg\" width=\"200\">\n                    <p><br>Your bonus pay is unchanged, and remains at $0.82.</p>\n            ","response":0,"trial_type":"html-button-response","trial_index":132,"time_elapsed":927285,"internal_node_id":"0.0-4.0-1.62","subject_id":"60fc6dfc6c5da4a24238a7e9","study_id":"6197b3f67c2b5cd3b6d9596a","session_id":"6197b54706fb59370dd4d3a9","condition":"contingent","relevant_dimensions":["antennae","pattern"],"bee_group":{"antennae":"A","wings":"X","pattern":"D","legs":"X"},"bonus":1.200000000000001},{"rt":3544.100000023842,"stimulus":"bees-with-color/bee-B1DF.svg","response":0,"trial_type":"image-button-response","trial_index":133,"time_elapsed":930847,"internal_node_id":"0.0-4.0-0.63","subject_id":"60fc6dfc6c5da4a24238a7e9","study_id":"6197b3f67c2b5cd3b6d9596a","session_id":"6197b54706fb59370dd4d3a9","condition":"contingent","relevant_dimensions":["antennae","pattern"],"bee_group":{"antennae":"A","wings":"X","pattern":"D","legs":"X"},"action":"harvest","summary":"good-harvest","bonus":1.200000000000001},{"rt":1134.4000000357628,"stimulus":"\n                    <p><b>Action: <em>harvest</em></b></p>\n                    <p>This is the bee that you just saw.</p>\n                    <img src=\"bees-with-color/bee-B1DF.svg\" width=\"200\">\n                    <p><span class=\"greenText\"><b>Successful harvest!</b></span><br>Your pay has increased by $0.02. Your bonus pay is now $0.84.</p>\n            ","response":0,"trial_type":"html-button-response","trial_index":134,"time_elapsed":931997,"internal_node_id":"0.0-4.0-1.63","subject_id":"60fc6dfc6c5da4a24238a7e9","study_id":"6197b3f67c2b5cd3b6d9596a","session_id":"6197b54706fb59370dd4d3a9","condition":"contingent","relevant_dimensions":["antennae","pattern"],"bee_group":{"antennae":"A","wings":"X","pattern":"D","legs":"X"},"bonus":1.200000000000001},{"rt":11801.300000011921,"stimulus":"You have completed the first part of this experiment.<br><br>You will now begin a shorter second part, in which you will receive no feedback.<br>The same rules regarding bonus pay apply.<br><br>Press any key to begin.","response":"j","trial_type":"html-keyboard-response","trial_index":135,"time_elapsed":943803,"internal_node_id":"0.0-5.0","subject_id":"60fc6dfc6c5da4a24238a7e9","study_id":"6197b3f67c2b5cd3b6d9596a","session_id":"6197b54706fb59370dd4d3a9","condition":"contingent","relevant_dimensions":["antennae","pattern"],"bee_group":{"antennae":"A","wings":"X","pattern":"D","legs":"X"},"bonus":1.200000000000001},{"rt":7135.300000011921,"stimulus":"bees-with-color/bee-A1SM.svg","response":0,"trial_type":"image-button-response","trial_index":136,"time_elapsed":950968,"internal_node_id":"0.0-6.0-0.0","subject_id":"60fc6dfc6c5da4a24238a7e9","study_id":"6197b3f67c2b5cd3b6d9596a","session_id":"6197b54706fb59370dd4d3a9","condition":"contingent","relevant_dimensions":["antennae","pattern"],"bee_group":{"antennae":"A","wings":"X","pattern":"D","legs":"X"},"bonus":1.200000000000001},{"rt":2791.400000035763,"stimulus":"bees-with-color/bee-A2DF.svg","response":1,"trial_type":"image-button-response","trial_index":137,"time_elapsed":953774,"internal_node_id":"0.0-6.0-0.1","subject_id":"60fc6dfc6c5da4a24238a7e9","study_id":"6197b3f67c2b5cd3b6d9596a","session_id":"6197b54706fb59370dd4d3a9","condition":"contingent","relevant_dimensions":["antennae","pattern"],"bee_group":{"antennae":"A","wings":"X","pattern":"D","legs":"X"},"bonus":1.200000000000001},{"rt":1113.6000000238419,"stimulus":"bees-with-color/bee-A2SM.svg","response":0,"trial_type":"image-button-response","trial_index":138,"time_elapsed":954919,"internal_node_id":"0.0-6.0-0.2","subject_id":"60fc6dfc6c5da4a24238a7e9","study_id":"6197b3f67c2b5cd3b6d9596a","session_id":"6197b54706fb59370dd4d3a9","condition":"contingent","relevant_dimensions":["antennae","pattern"],"bee_group":{"antennae":"A","wings":"X","pattern":"D","legs":"X"},"bonus":1.200000000000001},{"rt":1625,"stimulus":"bees-with-color/bee-B1DM.svg","response":1,"trial_type":"image-button-response","trial_index":139,"time_elapsed":956569,"internal_node_id":"0.0-6.0-0.3","subject_id":"60fc6dfc6c5da4a24238a7e9","study_id":"6197b3f67c2b5cd3b6d9596a","session_id":"6197b54706fb59370dd4d3a9","condition":"contingent","relevant_dimensions":["antennae","pattern"],"bee_group":{"antennae":"A","wings":"X","pattern":"D","legs":"X"},"bonus":1.200000000000001},{"rt":1187.699999988079,"stimulus":"bees-with-color/bee-B1SM.svg","response":0,"trial_type":"image-button-response","trial_index":140,"time_elapsed":957784,"internal_node_id":"0.0-6.0-0.4","subject_id":"60fc6dfc6c5da4a24238a7e9","study_id":"6197b3f67c2b5cd3b6d9596a","session_id":"6197b54706fb59370dd4d3a9","condition":"contingent","relevant_dimensions":["antennae","pattern"],"bee_group":{"antennae":"A","wings":"X","pattern":"D","legs":"X"},"bonus":1.200000000000001},{"rt":2727.800000011921,"stimulus":"bees-with-color/bee-A1DF.svg","response":1,"trial_type":"image-button-response","trial_index":141,"time_elapsed":960530,"internal_node_id":"0.0-6.0-0.5","subject_id":"60fc6dfc6c5da4a24238a7e9","study_id":"6197b3f67c2b5cd3b6d9596a","session_id":"6197b54706fb59370dd4d3a9","condition":"contingent","relevant_dimensions":["antennae","pattern"],"bee_group":{"antennae":"A","wings":"X","pattern":"D","legs":"X"},"bonus":1.200000000000001},{"rt":2935.199999988079,"stimulus":"bees-with-color/bee-B1DF.svg","response":0,"trial_type":"image-button-response","trial_index":142,"time_elapsed":963486,"internal_node_id":"0.0-6.0-0.6","subject_id":"60fc6dfc6c5da4a24238a7e9","study_id":"6197b3f67c2b5cd3b6d9596a","session_id":"6197b54706fb59370dd4d3a9","condition":"contingent","relevant_dimensions":["antennae","pattern"],"bee_group":{"antennae":"A","wings":"X","pattern":"D","legs":"X"},"bonus":1.200000000000001},{"rt":969.5,"stimulus":"bees-with-color/bee-B1SF.svg","response":0,"trial_type":"image-button-response","trial_index":143,"time_elapsed":964481,"internal_node_id":"0.0-6.0-0.7","subject_id":"60fc6dfc6c5da4a24238a7e9","study_id":"6197b3f67c2b5cd3b6d9596a","session_id":"6197b54706fb59370dd4d3a9","condition":"contingent","relevant_dimensions":["antennae","pattern"],"bee_group":{"antennae":"A","wings":"X","pattern":"D","legs":"X"},"bonus":1.200000000000001},{"rt":1555.8999999761581,"stimulus":"bees-with-color/bee-A1DM.svg","response":1,"trial_type":"image-button-response","trial_index":144,"time_elapsed":966048,"internal_node_id":"0.0-6.0-0.8","subject_id":"60fc6dfc6c5da4a24238a7e9","study_id":"6197b3f67c2b5cd3b6d9596a","session_id":"6197b54706fb59370dd4d3a9","condition":"contingent","relevant_dimensions":["antennae","pattern"],"bee_group":{"antennae":"A","wings":"X","pattern":"D","legs":"X"},"bonus":1.200000000000001},{"rt":1900.3999999761581,"stimulus":"bees-with-color/bee-A2DM.svg","response":1,"trial_type":"image-button-response","trial_index":145,"time_elapsed":967956,"internal_node_id":"0.0-6.0-0.9","subject_id":"60fc6dfc6c5da4a24238a7e9","study_id":"6197b3f67c2b5cd3b6d9596a","session_id":"6197b54706fb59370dd4d3a9","condition":"contingent","relevant_dimensions":["antennae","pattern"],"bee_group":{"antennae":"A","wings":"X","pattern":"D","legs":"X"},"bonus":1.200000000000001},{"rt":1212,"stimulus":"bees-with-color/bee-B2SM.svg","response":0,"trial_type":"image-button-response","trial_index":146,"time_elapsed":969177,"internal_node_id":"0.0-6.0-0.10","subject_id":"60fc6dfc6c5da4a24238a7e9","study_id":"6197b3f67c2b5cd3b6d9596a","session_id":"6197b54706fb59370dd4d3a9","condition":"contingent","relevant_dimensions":["antennae","pattern"],"bee_group":{"antennae":"A","wings":"X","pattern":"D","legs":"X"},"bonus":1.200000000000001},{"rt":2108.800000011921,"stimulus":"bees-with-color/bee-A1SF.svg","response":0,"trial_type":"image-button-response","trial_index":147,"time_elapsed":971295,"internal_node_id":"0.0-6.0-0.11","subject_id":"60fc6dfc6c5da4a24238a7e9","study_id":"6197b3f67c2b5cd3b6d9596a","session_id":"6197b54706fb59370dd4d3a9","condition":"contingent","relevant_dimensions":["antennae","pattern"],"bee_group":{"antennae":"A","wings":"X","pattern":"D","legs":"X"},"bonus":1.200000000000001},{"rt":1322,"stimulus":"bees-with-color/bee-B2DM.svg","response":1,"trial_type":"image-button-response","trial_index":148,"time_elapsed":972633,"internal_node_id":"0.0-6.0-0.12","subject_id":"60fc6dfc6c5da4a24238a7e9","study_id":"6197b3f67c2b5cd3b6d9596a","session_id":"6197b54706fb59370dd4d3a9","condition":"contingent","relevant_dimensions":["antennae","pattern"],"bee_group":{"antennae":"A","wings":"X","pattern":"D","legs":"X"},"bonus":1.200000000000001},{"rt":2166.899999976158,"stimulus":"bees-with-color/bee-B2DF.svg","response":1,"trial_type":"image-button-response","trial_index":149,"time_elapsed":974831,"internal_node_id":"0.0-6.0-0.13","subject_id":"60fc6dfc6c5da4a24238a7e9","study_id":"6197b3f67c2b5cd3b6d9596a","session_id":"6197b54706fb59370dd4d3a9","condition":"contingent","relevant_dimensions":["antennae","pattern"],"bee_group":{"antennae":"A","wings":"X","pattern":"D","legs":"X"},"bonus":1.200000000000001},{"rt":1771.5,"stimulus":"bees-with-color/bee-B2SF.svg","response":0,"trial_type":"image-button-response","trial_index":150,"time_elapsed":976615,"internal_node_id":"0.0-6.0-0.14","subject_id":"60fc6dfc6c5da4a24238a7e9","study_id":"6197b3f67c2b5cd3b6d9596a","session_id":"6197b54706fb59370dd4d3a9","condition":"contingent","relevant_dimensions":["antennae","pattern"],"bee_group":{"antennae":"A","wings":"X","pattern":"D","legs":"X"},"bonus":1.200000000000001},{"rt":1073.4000000357628,"stimulus":"bees-with-color/bee-A2SF.svg","response":0,"trial_type":"image-button-response","trial_index":151,"time_elapsed":977705,"internal_node_id":"0.0-6.0-0.15","subject_id":"60fc6dfc6c5da4a24238a7e9","study_id":"6197b3f67c2b5cd3b6d9596a","session_id":"6197b54706fb59370dd4d3a9","condition":"contingent","relevant_dimensions":["antennae","pattern"],"bee_group":{"antennae":"A","wings":"X","pattern":"D","legs":"X"},"bonus":1.200000000000001},{"rt":791.5,"stimulus":"bees-with-color/bee-B2SF.svg","response":0,"trial_type":"image-button-response","trial_index":152,"time_elapsed":978508,"internal_node_id":"0.0-6.0-0.16","subject_id":"60fc6dfc6c5da4a24238a7e9","study_id":"6197b3f67c2b5cd3b6d9596a","session_id":"6197b54706fb59370dd4d3a9","condition":"contingent","relevant_dimensions":["antennae","pattern"],"bee_group":{"antennae":"A","wings":"X","pattern":"D","legs":"X"},"bonus":1.200000000000001},{"rt":1445.5999999642372,"stimulus":"bees-with-color/bee-A1DM.svg","response":1,"trial_type":"image-button-response","trial_index":153,"time_elapsed":979987,"internal_node_id":"0.0-6.0-0.17","subject_id":"60fc6dfc6c5da4a24238a7e9","study_id":"6197b3f67c2b5cd3b6d9596a","session_id":"6197b54706fb59370dd4d3a9","condition":"contingent","relevant_dimensions":["antennae","pattern"],"bee_group":{"antennae":"A","wings":"X","pattern":"D","legs":"X"},"bonus":1.200000000000001},{"rt":1594.8999999761581,"stimulus":"bees-with-color/bee-B1DF.svg","response":0,"trial_type":"image-button-response","trial_index":154,"time_elapsed":981589,"internal_node_id":"0.0-6.0-0.18","subject_id":"60fc6dfc6c5da4a24238a7e9","study_id":"6197b3f67c2b5cd3b6d9596a","session_id":"6197b54706fb59370dd4d3a9","condition":"contingent","relevant_dimensions":["antennae","pattern"],"bee_group":{"antennae":"A","wings":"X","pattern":"D","legs":"X"},"bonus":1.200000000000001},{"rt":1450.4000000357628,"stimulus":"bees-with-color/bee-A1SM.svg","response":0,"trial_type":"image-button-response","trial_index":155,"time_elapsed":983062,"internal_node_id":"0.0-6.0-0.19","subject_id":"60fc6dfc6c5da4a24238a7e9","study_id":"6197b3f67c2b5cd3b6d9596a","session_id":"6197b54706fb59370dd4d3a9","condition":"contingent","relevant_dimensions":["antennae","pattern"],"bee_group":{"antennae":"A","wings":"X","pattern":"D","legs":"X"},"bonus":1.200000000000001},{"rt":1019.1000000238419,"stimulus":"bees-with-color/bee-B1SF.svg","response":0,"trial_type":"image-button-response","trial_index":156,"time_elapsed":984091,"internal_node_id":"0.0-6.0-0.20","subject_id":"60fc6dfc6c5da4a24238a7e9","study_id":"6197b3f67c2b5cd3b6d9596a","session_id":"6197b54706fb59370dd4d3a9","condition":"contingent","relevant_dimensions":["antennae","pattern"],"bee_group":{"antennae":"A","wings":"X","pattern":"D","legs":"X"},"bonus":1.200000000000001},{"rt":2000.8999999761581,"stimulus":"bees-with-color/bee-B2DM.svg","response":1,"trial_type":"image-button-response","trial_index":157,"time_elapsed":986103,"internal_node_id":"0.0-6.0-0.21","subject_id":"60fc6dfc6c5da4a24238a7e9","study_id":"6197b3f67c2b5cd3b6d9596a","session_id":"6197b54706fb59370dd4d3a9","condition":"contingent","relevant_dimensions":["antennae","pattern"],"bee_group":{"antennae":"A","wings":"X","pattern":"D","legs":"X"},"bonus":1.200000000000001},{"rt":1265,"stimulus":"bees-with-color/bee-B1SM.svg","response":0,"trial_type":"image-button-response","trial_index":158,"time_elapsed":987383,"internal_node_id":"0.0-6.0-0.22","subject_id":"60fc6dfc6c5da4a24238a7e9","study_id":"6197b3f67c2b5cd3b6d9596a","session_id":"6197b54706fb59370dd4d3a9","condition":"contingent","relevant_dimensions":["antennae","pattern"],"bee_group":{"antennae":"A","wings":"X","pattern":"D","legs":"X"},"bonus":1.200000000000001},{"rt":1348.8999999761581,"stimulus":"bees-with-color/bee-A2DM.svg","response":1,"trial_type":"image-button-response","trial_index":159,"time_elapsed":988740,"internal_node_id":"0.0-6.0-0.23","subject_id":"60fc6dfc6c5da4a24238a7e9","study_id":"6197b3f67c2b5cd3b6d9596a","session_id":"6197b54706fb59370dd4d3a9","condition":"contingent","relevant_dimensions":["antennae","pattern"],"bee_group":{"antennae":"A","wings":"X","pattern":"D","legs":"X"},"bonus":1.200000000000001},{"rt":3068.699999988079,"stimulus":"bees-with-color/bee-A2SM.svg","response":0,"trial_type":"image-button-response","trial_index":160,"time_elapsed":991822,"internal_node_id":"0.0-6.0-0.24","subject_id":"60fc6dfc6c5da4a24238a7e9","study_id":"6197b3f67c2b5cd3b6d9596a","session_id":"6197b54706fb59370dd4d3a9","condition":"contingent","relevant_dimensions":["antennae","pattern"],"bee_group":{"antennae":"A","wings":"X","pattern":"D","legs":"X"},"bonus":1.200000000000001},{"rt":1120.699999988079,"stimulus":"bees-with-color/bee-A2SF.svg","response":0,"trial_type":"image-button-response","trial_index":161,"time_elapsed":992956,"internal_node_id":"0.0-6.0-0.25","subject_id":"60fc6dfc6c5da4a24238a7e9","study_id":"6197b3f67c2b5cd3b6d9596a","session_id":"6197b54706fb59370dd4d3a9","condition":"contingent","relevant_dimensions":["antennae","pattern"],"bee_group":{"antennae":"A","wings":"X","pattern":"D","legs":"X"},"bonus":1.200000000000001},{"rt":3152.800000011921,"stimulus":"bees-with-color/bee-B2DF.svg","response":1,"trial_type":"image-button-response","trial_index":162,"time_elapsed":996117,"internal_node_id":"0.0-6.0-0.26","subject_id":"60fc6dfc6c5da4a24238a7e9","study_id":"6197b3f67c2b5cd3b6d9596a","session_id":"6197b54706fb59370dd4d3a9","condition":"contingent","relevant_dimensions":["antennae","pattern"],"bee_group":{"