[{"success":true,"trial_type":"fullscreen","trial_index":0,"time_elapsed":773392,"internal_node_id":"0.0-0.0","subject_id":"613a541cf948d295c1df8752","study_id":"6197b3f67c2b5cd3b6d9596a","session_id":"6197b889b224f7a9d010d454","condition":"contingent","relevant_dimensions":["wings","legs"],"bee_group":{"antennae":"X","wings":"1","pattern":"X","legs":"F"},"bonus":1.0200000000000011},{"success":true,"timeout":false,"failed_images":[],"failed_audio":[],"failed_video":[],"trial_type":"preload","trial_index":1,"time_elapsed":774247,"internal_node_id":"0.0-1.0","subject_id":"613a541cf948d295c1df8752","study_id":"6197b3f67c2b5cd3b6d9596a","session_id":"6197b889b224f7a9d010d454","condition":"contingent","relevant_dimensions":["wings","legs"],"bee_group":{"antennae":"X","wings":"1","pattern":"X","legs":"F"},"bonus":1.0200000000000011},{"rt":2016.7000000001863,"stimulus":"Welcome! Press any key to begin.","response":" ","trial_type":"html-keyboard-response","trial_index":2,"time_elapsed":776264,"internal_node_id":"0.0-2.0","subject_id":"613a541cf948d295c1df8752","study_id":"6197b3f67c2b5cd3b6d9596a","session_id":"6197b889b224f7a9d010d454","condition":"contingent","relevant_dimensions":["wings","legs"],"bee_group":{"antennae":"X","wings":"1","pattern":"X","legs":"F"},"bonus":1.0200000000000011},{"view_history":[{"page_index":0,"viewing_time":3016.199999999255},{"page_index":1,"viewing_time":8141},{"page_index":2,"viewing_time":13043.600000000559},{"page_index":3,"viewing_time":11853.899999999441},{"page_index":4,"viewing_time":4282.300000000745},{"page_index":5,"viewing_time":5688.899999999441},{"page_index":6,"viewing_time":5588.700000000186},{"page_index":7,"viewing_time":4290.5},{"page_index":8,"viewing_time":6011},{"page_index":9,"viewing_time":2230.0999999996275},{"page_index":10,"viewing_time":1778.5},{"page_index":11,"viewing_time":7592.700000000186},{"page_index":12,"viewing_time":5895.100000000559},{"page_index":13,"viewing_time":930.1999999992549},{"page_index":14,"viewing_time":1590.300000000745}],"rt":81933.19999999925,"trial_type":"instructions","trial_index":3,"time_elapsed":858198,"internal_node_id":"0.0-3.0-0.0","subject_id":"613a541cf948d295c1df8752","study_id":"6197b3f67c2b5cd3b6d9596a","session_id":"6197b889b224f7a9d010d454","condition":"contingent","relevant_dimensions":["wings","legs"],"bee_group":{"antennae":"X","wings":"1","pattern":"X","legs":"F"},"bonus":1.0200000000000011},{"rt":9521.800000000745,"response":{"Q0":["Two or six legs","Stripes or spots on body","Single or double wings","Antennae or no antennae"]},"question_order":[0],"trial_type":"survey-multi-select","trial_index":4,"time_elapsed":867724,"internal_node_id":"0.0-3.0-1.0","subject_id":"613a541cf948d295c1df8752","study_id":"6197b3f67c2b5cd3b6d9596a","session_id":"6197b889b224f7a9d010d454","condition":"contingent","relevant_dimensions":["wings","legs"],"bee_group":{"antennae":"X","wings":"1","pattern":"X","legs":"F"},"correct":true,"bonus":1.0200000000000011},{"rt":14730.5,"response":{"Q1":"No.","Q2":"Based on the four features of the bee.","Q3":"You do not learn if it was friendly or dangerous, and do not alter your bonus."},"question_order":[0,1,2],"trial_type":"survey-multi-choice","trial_index":5,"time_elapsed":882456,"internal_node_id":"0.0-3.0-2.0","subject_id":"613a541cf948d295c1df8752","study_id":"6197b3f67c2b5cd3b6d9596a","session_id":"6197b889b224f7a9d010d454","condition":"contingent","relevant_dimensions":["wings","legs"],"bee_group":{"antennae":"X","wings":"1","pattern":"X","legs":"F"},"correct":true,"bonus":1.0200000000000011},{"rt":1736.2000000001863,"stimulus":"<p>Congrats, you got everything right<br>When you're ready, click the button below to continue to the experiment.</p>","response":0,"trial_type":"html-button-response","trial_index":6,"time_elapsed":884193,"internal_node_id":"0.0-3.0-3.0","subject_id":"613a541cf948d295c1df8752","study_id":"6197b3f67c2b5cd3b6d9596a","session_id":"6197b889b224f7a9d010d454","condition":"contingent","relevant_dimensions":["wings","legs"],"bee_group":{"antennae":"X","wings":"1","pattern":"X","legs":"F"},"bonus":1.0200000000000011},{"rt":8144.4000000003725,"stimulus":"bees-with-color/bee-A1DM.svg","response":0,"trial_type":"image-button-response","trial_index":7,"time_elapsed":892341,"internal_node_id":"0.0-4.0-0.0","subject_id":"613a541cf948d295c1df8752","study_id":"6197b3f67c2b5cd3b6d9596a","session_id":"6197b889b224f7a9d010d454","condition":"contingent","relevant_dimensions":["wings","legs"],"bee_group":{"antennae":"X","wings":"1","pattern":"X","legs":"F"},"action":"harvest","summary":"good-harvest","bonus":1.0200000000000011},{"rt":6327.799999999814,"stimulus":"\n                    <p><b>Action: <em>harvest</em></b></p>\n                    <p>This is the bee that you just saw.</p>\n                    <img src=\"bees-with-color/bee-A1DM.svg\" width=\"200\">\n                    <p><span class=\"greenText\"><b>Successful harvest!</b></span><br>Your pay has increased by $0.02. Your bonus pay is now $0.56.</p>\n            ","response":0,"trial_type":"html-button-response","trial_index":8,"time_elapsed":898672,"internal_node_id":"0.0-4.0-1.0","subject_id":"613a541cf948d295c1df8752","study_id":"6197b3f67c2b5cd3b6d9596a","session_id":"6197b889b224f7a9d010d454","condition":"contingent","relevant_dimensions":["wings","legs"],"bee_group":{"antennae":"X","wings":"1","pattern":"X","legs":"F"},"bonus":1.0200000000000011},{"rt":2316.2000000001863,"stimulus":"bees-with-color/bee-B1SM.svg","response":1,"trial_type":"image-button-response","trial_index":9,"time_elapsed":900990,"internal_node_id":"0.0-4.0-0.1","subject_id":"613a541cf948d295c1df8752","study_id":"6197b3f67c2b5cd3b6d9596a","session_id":"6197b889b224f7a9d010d454","condition":"contingent","relevant_dimensions":["wings","legs"],"bee_group":{"antennae":"X","wings":"1","pattern":"X","legs":"F"},"action":"avoid","summary":"bad-avoid","bonus":1.0200000000000011},{"rt":5116.799999999814,"stimulus":"\n                    <p><b>Action: <em>avoid</em></b></p>\n                    <p>This is the bee that you just saw.</p>\n                    <img src=\"bees-with-color/bee-B1SM.svg\" width=\"200\">\n                    <p><br>Your bonus pay is unchanged, and remains at $0.56.</p>\n            ","response":0,"trial_type":"html-button-response","trial_index":10,"time_elapsed":906109,"internal_node_id":"0.0-4.0-1.1","subject_id":"613a541cf948d295c1df8752","study_id":"6197b3f67c2b5cd3b6d9596a","session_id":"6197b889b224f7a9d010d454","condition":"contingent","relevant_dimensions":["wings","legs"],"bee_group":{"antennae":"X","wings":"1","pattern":"X","legs":"F"},"bonus":1.0200000000000011},{"rt":2305.899999999441,"stimulus":"bees-with-color/bee-A1SF.svg","response":0,"trial_type":"image-button-response","trial_index":11,"time_elapsed":908417,"internal_node_id":"0.0-4.0-0.2","subject_id":"613a541cf948d295c1df8752","study_id":"6197b3f67c2b5cd3b6d9596a","session_id":"6197b889b224f7a9d010d454","condition":"contingent","relevant_dimensions":["wings","legs"],"bee_group":{"antennae":"X","wings":"1","pattern":"X","legs":"F"},"action":"harvest","summary":"bad-harvest","bonus":1.0200000000000011},{"rt":5423.100000000559,"stimulus":"\n                    <p><b>Action: <em>harvest</em></b></p>\n                    <p>This is the bee that you just saw.</p>\n                    <img src=\"bees-with-color/bee-A1SF.svg\" width=\"200\">\n                    <p><span class=\"redText\">Bad choice, the bee was angry.</span><br><b>You have been stung!</b><br>Your pay has been decreased by $0.10. Your bonus pay is now $0.46.</p>\n            ","response":0,"trial_type":"html-button-response","trial_index":12,"time_elapsed":913842,"internal_node_id":"0.0-4.0-1.2","subject_id":"613a541cf948d295c1df8752","study_id":"6197b3f67c2b5cd3b6d9596a","session_id":"6197b889b224f7a9d010d454","condition":"contingent","relevant_dimensions":["wings","legs"],"bee_group":{"antennae":"X","wings":"1","pattern":"X","legs":"F"},"bonus":1.0200000000000011},{"rt":1312.699999999255,"stimulus":"bees-with-color/bee-A2DF.svg","response":0,"trial_type":"image-button-response","trial_index":13,"time_elapsed":915156,"internal_node_id":"0.0-4.0-0.3","subject_id":"613a541cf948d295c1df8752","study_id":"6197b3f67c2b5cd3b6d9596a","session_id":"6197b889b224f7a9d010d454","condition":"contingent","relevant_dimensions":["wings","legs"],"bee_group":{"antennae":"X","wings":"1","pattern":"X","legs":"F"},"action":"harvest","summary":"good-harvest","bonus":1.0200000000000011},{"rt":1382,"stimulus":"\n                    <p><b>Action: <em>harvest</em></b></p>\n                    <p>This is the bee that you just saw.</p>\n                    <img src=\"bees-with-color/bee-A2DF.svg\" width=\"200\">\n                    <p><span class=\"greenText\"><b>Successful harvest!</b></span><br>Your pay has increased by $0.02. Your bonus pay is now $0.48.</p>\n            ","response":0,"trial_type":"html-button-response","trial_index":14,"time_elapsed":916540,"internal_node_id":"0.0-4.0-1.3","subject_id":"613a541cf948d295c1df8752","study_id":"6197b3f67c2b5cd3b6d9596a","session_id":"6197b889b224f7a9d010d454","condition":"contingent","relevant_dimensions":["wings","legs"],"bee_group":{"antennae":"X","wings":"1","pattern":"X","legs":"F"},"bonus":1.0200000000000011},{"rt":3340.5,"stimulus":"bees-with-color/bee-B2SF.svg","response":0,"trial_type":"image-button-response","trial_index":15,"time_elapsed":919882,"internal_node_id":"0.0-4.0-0.4","subject_id":"613a541cf948d295c1df8752","study_id":"6197b3f67c2b5cd3b6d9596a","session_id":"6197b889b224f7a9d010d454","condition":"contingent","relevant_dimensions":["wings","legs"],"bee_group":{"antennae":"X","wings":"1","pattern":"X","legs":"F"},"action":"harvest","summary":"good-harvest","bonus":1.0200000000000011},{"rt":890.3999999994412,"stimulus":"\n                    <p><b>Action: <em>harvest</em></b></p>\n                    <p>This is the bee that you just saw.</p>\n                    <img src=\"bees-with-color/bee-B2SF.svg\" width=\"200\">\n                    <p><span class=\"greenText\"><b>Successful harvest!</b></span><br>Your pay has increased by $0.02. Your bonus pay is now $0.50.</p>\n            ","response":0,"trial_type":"html-button-response","trial_index":16,"time_elapsed":920775,"internal_node_id":"0.0-4.0-1.4","subject_id":"613a541cf948d295c1df8752","study_id":"6197b3f67c2b5cd3b6d9596a","session_id":"6197b889b224f7a9d010d454","condition":"contingent","relevant_dimensions":["wings","legs"],"bee_group":{"antennae":"X","wings":"1","pattern":"X","legs":"F"},"bonus":1.0200000000000011},{"rt":992.5,"stimulus":"bees-with-color/bee-B1DM.svg","response":0,"trial_type":"image-button-response","trial_index":17,"time_elapsed":921769,"internal_node_id":"0.0-4.0-0.5","subject_id":"613a541cf948d295c1df8752","study_id":"6197b3f67c2b5cd3b6d9596a","session_id":"6197b889b224f7a9d010d454","condition":"contingent","relevant_dimensions":["wings","legs"],"bee_group":{"antennae":"X","wings":"1","pattern":"X","legs":"F"},"action":"harvest","summary":"good-harvest","bonus":1.0200000000000011},{"rt":750.5999999996275,"stimulus":"\n                    <p><b>Action: <em>harvest</em></b></p>\n                    <p>This is the bee that you just saw.</p>\n                    <img src=\"bees-with-color/bee-B1DM.svg\" width=\"200\">\n                    <p><span class=\"greenText\"><b>Successful harvest!</b></span><br>Your pay has increased by $0.02. Your bonus pay is now $0.52.</p>\n            ","response":0,"trial_type":"html-button-response","trial_index":18,"time_elapsed":922521,"internal_node_id":"0.0-4.0-1.5","subject_id":"613a541cf948d295c1df8752","study_id":"6197b3f67c2b5cd3b6d9596a","session_id":"6197b889b224f7a9d010d454","condition":"contingent","relevant_dimensions":["wings","legs"],"bee_group":{"antennae":"X","wings":"1","pattern":"X","legs":"F"},"bonus":1.0200000000000011},{"rt":1234.7000000001863,"stimulus":"bees-with-color/bee-B1DF.svg","response":0,"trial_type":"image-button-response","trial_index":19,"time_elapsed":923757,"internal_node_id":"0.0-4.0-0.6","subject_id":"613a541cf948d295c1df8752","study_id":"6197b3f67c2b5cd3b6d9596a","session_id":"6197b889b224f7a9d010d454","condition":"contingent","relevant_dimensions":["wings","legs"],"bee_group":{"antennae":"X","wings":"1","pattern":"X","legs":"F"},"action":"harvest","summary":"bad-harvest","bonus":1.0200000000000011},{"rt":2213,"stimulus":"\n                    <p><b>Action: <em>harvest</em></b></p>\n                    <p>This is the bee that you just saw.</p>\n                    <img src=\"bees-with-color/bee-B1DF.svg\" width=\"200\">\n                    <p><span class=\"redText\">Bad choice, the bee was angry.</span><br><b>You have been stung!</b><br>Your pay has been decreased by $0.10. Your bonus pay is now $0.42.</p>\n            ","response":0,"trial_type":"html-button-response","trial_index":20,"time_elapsed":925971,"internal_node_id":"0.0-4.0-1.6","subject_id":"613a541cf948d295c1df8752","study_id":"6197b3f67c2b5cd3b6d9596a","session_id":"6197b889b224f7a9d010d454","condition":"contingent","relevant_dimensions":["wings","legs"],"bee_group":{"antennae":"X","wings":"1","pattern":"X","legs":"F"},"bonus":1.0200000000000011},{"rt":3107.199999999255,"stimulus":"bees-with-color/bee-A1SM.svg","response":0,"trial_type":"image-button-response","trial_index":21,"time_elapsed":929080,"internal_node_id":"0.0-4.0-0.7","subject_id":"613a541cf948d295c1df8752","study_id":"6197b3f67c2b5cd3b6d9596a","session_id":"6197b889b224f7a9d010d454","condition":"contingent","relevant_dimensions":["wings","legs"],"bee_group":{"antennae":"X","wings":"1","pattern":"X","legs":"F"},"action":"harvest","summary":"good-harvest","bonus":1.0200000000000011},{"rt":748.5,"stimulus":"\n                    <p><b>Action: <em>harvest</em></b></p>\n                    <p>This is the bee that you just saw.</p>\n                    <img src=\"bees-with-color/bee-A1SM.svg\" width=\"200\">\n                    <p><span class=\"greenText\"><b>Successful harvest!</b></span><br>Your pay has increased by $0.02. Your bonus pay is now $0.44.</p>\n            ","response":0,"trial_type":"html-button-response","trial_index":22,"time_elapsed":929830,"internal_node_id":"0.0-4.0-1.7","subject_id":"613a541cf948d295c1df8752","study_id":"6197b3f67c2b5cd3b6d9596a","session_id":"6197b889b224f7a9d010d454","condition":"contingent","relevant_dimensions":["wings","legs"],"bee_group":{"antennae":"X","wings":"1","pattern":"X","legs":"F"},"bonus":1.0200000000000011},{"rt":1258.2999999998137,"stimulus":"bees-with-color/bee-B2DF.svg","response":1,"trial_type":"image-button-response","trial_index":23,"time_elapsed":931090,"internal_node_id":"0.0-4.0-0.8","subject_id":"613a541cf948d295c1df8752","study_id":"6197b3f67c2b5cd3b6d9596a","session_id":"6197b889b224f7a9d010d454","condition":"contingent","relevant_dimensions":["wings","legs"],"bee_group":{"antennae":"X","wings":"1","pattern":"X","legs":"F"},"action":"avoid","summary":"bad-avoid","bonus":1.0200000000000011},{"rt":1588.7000000001863,"stimulus":"\n                    <p><b>Action: <em>avoid</em></b></p>\n                    <p>This is the bee that you just saw.</p>\n                    <img src=\"bees-with-color/bee-B2DF.svg\" width=\"200\">\n                    <p><br>Your bonus pay is unchanged, and remains at $0.44.</p>\n            ","response":0,"trial_type":"html-button-response","trial_index":24,"time_elapsed":932680,"internal_node_id":"0.0-4.0-1.8","subject_id":"613a541cf948d295c1df8752","study_id":"6197b3f67c2b5cd3b6d9596a","session_id":"6197b889b224f7a9d010d454","condition":"contingent","relevant_dimensions":["wings","legs"],"bee_group":{"antennae":"X","wings":"1","pattern":"X","legs":"F"},"bonus":1.0200000000000011},{"rt":1804.7000000001863,"stimulus":"bees-with-color/bee-B2DM.svg","response":0,"trial_type":"image-button-response","trial_index":25,"time_elapsed":934486,"internal_node_id":"0.0-4.0-0.9","subject_id":"613a541cf948d295c1df8752","study_id":"6197b3f67c2b5cd3b6d9596a","session_id":"6197b889b224f7a9d010d454","condition":"contingent","relevant_dimensions":["wings","legs"],"bee_group":{"antennae":"X","wings":"1","pattern":"X","legs":"F"},"action":"harvest","summary":"good-harvest","bonus":1.0200000000000011},{"rt":657.1000000005588,"stimulus":"\n                    <p><b>Action: <em>harvest</em></b></p>\n                    <p>This is the bee that you just saw.</p>\n                    <img src=\"bees-with-color/bee-B2DM.svg\" width=\"200\">\n                    <p><span class=\"greenText\"><b>Successful harvest!</b></span><br>Your pay has increased by $0.02. Your bonus pay is now $0.46.</p>\n            ","response":0,"trial_type":"html-button-response","trial_index":26,"time_elapsed":935145,"internal_node_id":"0.0-4.0-1.9","subject_id":"613a541cf948d295c1df8752","study_id":"6197b3f67c2b5cd3b6d9596a","session_id":"6197b889b224f7a9d010d454","condition":"contingent","relevant_dimensions":["wings","legs"],"bee_group":{"antennae":"X","wings":"1","pattern":"X","legs":"F"},"bonus":1.0200000000000011},{"rt":836.7000000001863,"stimulus":"bees-with-color/bee-A2DM.svg","response":0,"trial_type":"image-button-response","trial_index":27,"time_elapsed":935983,"internal_node_id":"0.0-4.0-0.10","subject_id":"613a541cf948d295c1df8752","study_id":"6197b3f67c2b5cd3b6d9596a","session_id":"6197b889b224f7a9d010d454","condition":"contingent","relevant_dimensions":["wings","legs"],"bee_group":{"antennae":"X","wings":"1","pattern":"X","legs":"F"},"action":"harvest","summary":"good-harvest","bonus":1.0200000000000011},{"rt":662.7999999998137,"stimulus":"\n                    <p><b>Action: <em>harvest</em></b></p>\n                    <p>This is the bee that you just saw.</p>\n                    <img src=\"bees-with-color/bee-A2DM.svg\" width=\"200\">\n                    <p><span class=\"greenText\"><b>Successful harvest!</b></span><br>Your pay has increased by $0.02. Your bonus pay is now $0.48.</p>\n            ","response":0,"trial_type":"html-button-response","trial_index":28,"time_elapsed":936647,"internal_node_id":"0.0-4.0-1.10","subject_id":"613a541cf948d295c1df8752","study_id":"6197b3f67c2b5cd3b6d9596a","session_id":"6197b889b224f7a9d010d454","condition":"contingent","relevant_dimensions":["wings","legs"],"bee_group":{"antennae":"X","wings":"1","pattern":"X","legs":"F"},"bonus":1.0200000000000011},{"rt":1338.5,"stimulus":"bees-with-color/bee-B2SM.svg","response":0,"trial_type":"image-button-response","trial_index":29,"time_elapsed":937987,"internal_node_id":"0.0-4.0-0.11","subject_id":"613a541cf948d295c1df8752","study_id":"6197b3f67c2b5cd3b6d9596a","session_id":"6197b889b224f7a9d010d454","condition":"contingent","relevant_dimensions":["wings","legs"],"bee_group":{"antennae":"X","wings":"1","pattern":"X","legs":"F"},"action":"harvest","summary":"good-harvest","bonus":1.0200000000000011},{"rt":711,"stimulus":"\n                    <p><b>Action: <em>harvest</em></b></p>\n                    <p>This is the bee that you just saw.</p>\n                    <img src=\"bees-with-color/bee-B2SM.svg\" width=\"200\">\n                    <p><span class=\"greenText\"><b>Successful harvest!</b></span><br>Your pay has increased by $0.02. Your bonus pay is now $0.50.</p>\n            ","response":0,"trial_type":"html-button-response","trial_index":30,"time_elapsed":938699,"internal_node_id":"0.0-4.0-1.11","subject_id":"613a541cf948d295c1df8752","study_id":"6197b3f67c2b5cd3b6d9596a","session_id":"6197b889b224f7a9d010d454","condition":"contingent","relevant_dimensions":["wings","legs"],"bee_group":{"antennae":"X","wings":"1","pattern":"X","legs":"F"},"bonus":1.0200000000000011},{"rt":1250.7999999998137,"stimulus":"bees-with-color/bee-A1DF.svg","response":1,"trial_type":"image-button-response","trial_index":31,"time_elapsed":939951,"internal_node_id":"0.0-4.0-0.12","subject_id":"613a541cf948d295c1df8752","study_id":"6197b3f67c2b5cd3b6d9596a","session_id":"6197b889b224f7a9d010d454","condition":"contingent","relevant_dimensions":["wings","legs"],"bee_group":{"antennae":"X","wings":"1","pattern":"X","legs":"F"},"action":"avoid","summary":"good-avoid","bonus":1.0200000000000011},{"rt":515.1000000005588,"stimulus":"\n                    <p><b>Action: <em>avoid</em></b></p>\n                    <p>This is the bee that you just saw.</p>\n                    <img src=\"bees-with-color/bee-A1DF.svg\" width=\"200\">\n                    <p><br>Your bonus pay is unchanged, and remains at $0.50.</p>\n            ","response":0,"trial_type":"html-button-response","trial_index":32,"time_elapsed":940467,"internal_node_id":"0.0-4.0-1.12","subject_id":"613a541cf948d295c1df8752","study_id":"6197b3f67c2b5cd3b6d9596a","session_id":"6197b889b224f7a9d010d454","condition":"contingent","relevant_dimensions":["wings","legs"],"bee_group":{"antennae":"X","wings":"1","pattern":"X","legs":"F"},"bonus":1.0200000000000011},{"rt":1288.699999999255,"stimulus":"bees-with-color/bee-B1SF.svg","response":1,"trial_type":"image-button-response","trial_index":33,"time_elapsed":941757,"internal_node_id":"0.0-4.0-0.13","subject_id":"613a541cf948d295c1df8752","study_id":"6197b3f67c2b5cd3b6d9596a","session_id":"6197b889b224f7a9d010d454","condition":"contingent","relevant_dimensions":["wings","legs"],"bee_group":{"antennae":"X","wings":"1","pattern":"X","legs":"F"},"action":"avoid","summary":"good-avoid","bonus":1.0200000000000011},{"rt":735.2000000001863,"stimulus":"\n                    <p><b>Action: <em>avoid</em></b></p>\n                    <p>This is the bee that you just saw.</p>\n                    <img src=\"bees-with-color/bee-B1SF.svg\" width=\"200\">\n                    <p><br>Your bonus pay is unchanged, and remains at $0.50.</p>\n            ","response":0,"trial_type":"html-button-response","trial_index":34,"time_elapsed":942494,"internal_node_id":"0.0-4.0-1.13","subject_id":"613a541cf948d295c1df8752","study_id":"6197b3f67c2b5cd3b6d9596a","session_id":"6197b889b224f7a9d010d454","condition":"contingent","relevant_dimensions":["wings","legs"],"bee_group":{"antennae":"X","wings":"1","pattern":"X","legs":"F"},"bonus":1.0200000000000011},{"rt":968.7999999998137,"stimulus":"bees-with-color/bee-A2SM.svg","response":0,"trial_type":"image-button-response","trial_index":35,"time_elapsed":943464,"internal_node_id":"0.0-4.0-0.14","subject_id":"613a541cf948d295c1df8752","study_id":"6197b3f67c2b5cd3b6d9596a","session_id":"6197b889b224f7a9d010d454","condition":"contingent","relevant_dimensions":["wings","legs"],"bee_group":{"antennae":"X","wings":"1","pattern":"X","legs":"F"},"action":"harvest","summary":"good-harvest","bonus":1.0200000000000011},{"rt":562.5999999996275,"stimulus":"\n                    <p><b>Action: <em>harvest</em></b></p>\n                    <p>This is the bee that you just saw.</p>\n                    <img src=\"bees-with-color/bee-A2SM.svg\" width=\"200\">\n                    <p><span class=\"greenText\"><b>Successful harvest!</b></span><br>Your pay has increased by $0.02. Your bonus pay is now $0.52.</p>\n            ","response":0,"trial_type":"html-button-response","trial_index":36,"time_elapsed":944028,"internal_node_id":"0.0-4.0-1.14","subject_id":"613a541cf948d295c1df8752","study_id":"6197b3f67c2b5cd3b6d9596a","session_id":"6197b889b224f7a9d010d454","condition":"contingent","relevant_dimensions":["wings","legs"],"bee_group":{"antennae":"X","wings":"1","pattern":"X","legs":"F"},"bonus":1.0200000000000011},{"rt":772.6000000005588,"stimulus":"bees-with-color/bee-A2SF.svg","response":0,"trial_type":"image-button-response","trial_index":37,"time_elapsed":944802,"internal_node_id":"0.0-4.0-0.15","subject_id":"613a541cf948d295c1df8752","study_id":"6197b3f67c2b5cd3b6d9596a","session_id":"6197b889b224f7a9d010d454","condition":"contingent","relevant_dimensions":["wings","legs"],"bee_group":{"antennae":"X","wings":"1","pattern":"X","legs":"F"},"action":"harvest","summary":"good-harvest","bonus":1.0200000000000011},{"rt":624.7999999998137,"stimulus":"\n                    <p><b>Action: <em>harvest</em></b></p>\n                    <p>This is the bee that you just saw.</p>\n                    <img src=\"bees-with-color/bee-A2SF.svg\" width=\"200\">\n                    <p><span class=\"greenText\"><b>Successful harvest!</b></span><br>Your pay has increased by $0.02. Your bonus pay is now $0.54.</p>\n            ","response":0,"trial_type":"html-button-response","trial_index":38,"time_elapsed":945428,"internal_node_id":"0.0-4.0-1.15","subject_id":"613a541cf948d295c1df8752","study_id":"6197b3f67c2b5cd3b6d9596a","session_id":"6197b889b224f7a9d010d454","condition":"contingent","relevant_dimensions":["wings","legs"],"bee_group":{"antennae":"X","wings":"1","pattern":"X","legs":"F"},"bonus":1.0200000000000011},{"rt":688.7000000001863,"stimulus":"bees-with-color/bee-A1SF.svg","response":0,"trial_type":"image-button-response","trial_index":39,"time_elapsed":946118,"internal_node_id":"0.0-4.0-0.16","subject_id":"613a541cf948d295c1df8752","study_id":"6197b3f67c2b5cd3b6d9596a","session_id":"6197b889b224f7a9d010d454","condition":"contingent","relevant_dimensions":["wings","legs"],"bee_group":{"antennae":"X","wings":"1","pattern":"X","legs":"F"},"action":"harvest","summary":"bad-harvest","bonus":1.0200000000000011},{"rt":4380.9000000003725,"stimulus":"\n                    <p><b>Action: <em>harvest</em></b></p>\n                    <p>This is the bee that you just saw.</p>\n                    <img src=\"bees-with-color/bee-A1SF.svg\" width=\"200\">\n                    <p><span class=\"redText\">Bad choice, the bee was angry.</span><br><b>You have been stung!</b><br>Your pay has been decreased by $0.10. Your bonus pay is now $0.44.</p>\n            ","response":0,"trial_type":"html-button-response","trial_index":40,"time_elapsed":950501,"internal_node_id":"0.0-4.0-1.16","subject_id":"613a541cf948d295c1df8752","study_id":"6197b3f67c2b5cd3b6d9596a","session_id":"6197b889b224f7a9d010d454","condition":"contingent","relevant_dimensions":["wings","legs"],"bee_group":{"antennae":"X","wings":"1","pattern":"X","legs":"F"},"bonus":1.0200000000000011},{"rt":960.3000000007451,"stimulus":"bees-with-color/bee-A2SF.svg","response":0,"trial_type":"image-button-response","trial_index":41,"time_elapsed":951463,"internal_node_id":"0.0-4.0-0.17","subject_id":"613a541cf948d295c1df8752","study_id":"6197b3f67c2b5cd3b6d9596a","session_id":"6197b889b224f7a9d010d454","condition":"contingent","relevant_dimensions":["wings","legs"],"bee_group":{"antennae":"X","wings":"1","pattern":"X","legs":"F"},"action":"harvest","summary":"good-harvest","bonus":1.0200000000000011},{"rt":608.9000000003725,"stimulus":"\n                    <p><b>Action: <em>harvest</em></b></p>\n                    <p>This is the bee that you just saw.</p>\n                    <img src=\"bees-with-color/bee-A2SF.svg\" width=\"200\">\n                    <p><span class=\"greenText\"><b>Successful harvest!</b></span><br>Your pay has increased by $0.02. Your bonus pay is now $0.46.</p>\n            ","response":0,"trial_type":"html-button-response","trial_index":42,"time_elapsed":952073,"internal_node_id":"0.0-4.0-1.17","subject_id":"613a541cf948d295c1df8752","study_id":"6197b3f67c2b5cd3b6d9596a","session_id":"6197b889b224f7a9d010d454","condition":"contingent","relevant_dimensions":["wings","legs"],"bee_group":{"antennae":"X","wings":"1","pattern":"X","legs":"F"},"bonus":1.0200000000000011},{"rt":1000.9000000003725,"stimulus":"bees-with-color/bee-B1DM.svg","response":0,"trial_type":"image-button-response","trial_index":43,"time_elapsed":953076,"internal_node_id":"0.0-4.0-0.18","subject_id":"613a541cf948d295c1df8752","study_id":"6197b3f67c2b5cd3b6d9596a","session_id":"6197b889b224f7a9d010d454","condition":"contingent","relevant_dimensions":["wings","legs"],"bee_group":{"antennae":"X","wings":"1","pattern":"X","legs":"F"},"action":"harvest","summary":"good-harvest","bonus":1.0200000000000011},{"rt":654.5999999996275,"stimulus":"\n                    <p><b>Action: <em>harvest</em></b></p>\n                    <p>This is the bee that you just saw.</p>\n                    <img src=\"bees-with-color/bee-B1DM.svg\" width=\"200\">\n                    <p><span class=\"greenText\"><b>Successful harvest!</b></span><br>Your pay has increased by $0.02. Your bonus pay is now $0.48.</p>\n            ","response":0,"trial_type":"html-button-response","trial_index":44,"time_elapsed":953732,"internal_node_id":"0.0-4.0-1.18","subject_id":"613a541cf948d295c1df8752","study_id":"6197b3f67c2b5cd3b6d9596a","session_id":"6197b889b224f7a9d010d454","condition":"contingent","relevant_dimensions":["wings","legs"],"bee_group":{"antennae":"X","wings":"1","pattern":"X","legs":"F"},"bonus":1.0200000000000011},{"rt":1032.5999999996275,"stimulus":"bees-with-color/bee-B1SM.svg","response":0,"trial_type":"image-button-response","trial_index":45,"time_elapsed":954766,"internal_node_id":"0.0-4.0-0.19","subject_id":"613a541cf948d295c1df8752","study_id":"6197b3f67c2b5cd3b6d9596a","session_id":"6197b889b224f7a9d010d454","condition":"contingent","relevant_dimensions":["wings","legs"],"bee_group":{"antennae":"X","wings":"1","pattern":"X","legs":"F"},"action":"harvest","summary":"good-harvest","bonus":1.0200000000000011},{"rt":546.0999999996275,"stimulus":"\n                    <p><b>Action: <em>harvest</em></b></p>\n                    <p>This is the bee that you just saw.</p>\n                    <img src=\"bees-with-color/bee-B1SM.svg\" width=\"200\">\n                    <p><span class=\"greenText\"><b>Successful harvest!</b></span><br>Your pay has increased by $0.02. Your bonus pay is now $0.50.</p>\n            ","response":0,"trial_type":"html-button-response","trial_index":46,"time_elapsed":955314,"internal_node_id":"0.0-4.0-1.19","subject_id":"613a541cf948d295c1df8752","study_id":"6197b3f67c2b5cd3b6d9596a","session_id":"6197b889b224f7a9d010d454","condition":"contingent","relevant_dimensions":["wings","legs"],"bee_group":{"antennae":"X","wings":"1","pattern":"X","legs":"F"},"bonus":1.0200000000000011},{"rt":912.8999999994412,"stimulus":"bees-with-color/bee-B2SM.svg","response":0,"trial_type":"image-button-response","trial_index":47,"time_elapsed":956228,"internal_node_id":"0.0-4.0-0.20","subject_id":"613a541cf948d295c1df8752","study_id":"6197b3f67c2b5cd3b6d9596a","session_id":"6197b889b224f7a9d010d454","condition":"contingent","relevant_dimensions":["wings","legs"],"bee_group":{"antennae":"X","wings":"1","pattern":"X","legs":"F"},"action":"harvest","summary":"good-harvest","bonus":1.0200000000000011},{"rt":570.7000000001863,"stimulus":"\n                    <p><b>Action: <em>harvest</em></b></p>\n                    <p>This is the bee that you just saw.</p>\n                    <img src=\"bees-with-color/bee-B2SM.svg\" width=\"200\">\n                    <p><span class=\"greenText\"><b>Successful harvest!</b></span><br>Your pay has increased by $0.02. Your bonus pay is now $0.52.</p>\n            ","response":0,"trial_type":"html-button-response","trial_index":48,"time_elapsed":956800,"internal_node_id":"0.0-4.0-1.20","subject_id":"613a541cf948d295c1df8752","study_id":"6197b3f67c2b5cd3b6d9596a","session_id":"6197b889b224f7a9d010d454","condition":"contingent","relevant_dimensions":["wings","legs"],"bee_group":{"antennae":"X","wings":"1","pattern":"X","legs":"F"},"bonus":1.0200000000000011},{"rt":789,"stimulus":"bees-with-color/bee-B2DF.svg","response":0,"trial_type":"image-button-response","trial_index":49,"time_elapsed":957590,"internal_node_id":"0.0-4.0-0.21","subject_id":"613a541cf948d295c1df8752","study_id":"6197b3f67c2b5cd3b6d9596a","session_id":"6197b889b224f7a9d010d454","condition":"contingent","relevant_dimensions":["wings","legs"],"bee_group":{"antennae":"X","wings":"1","pattern":"X","legs":"F"},"action":"harvest","summary":"good-harvest","bonus":1.0200000000000011},{"rt":506.3999999994412,"stimulus":"\n                    <p><b>Action: <em>harvest</em></b></p>\n                    <p>This is the bee that you just saw.</p>\n                    <img src=\"bees-with-color/bee-B2DF.svg\" width=\"200\">\n                    <p><span class=\"greenText\"><b>Successful harvest!</b></span><br>Your pay has increased by $0.02. Your bonus pay is now $0.54.</p>\n            ","response":0,"trial_type":"html-button-response","trial_index":50,"time_elapsed":958098,"internal_node_id":"0.0-4.0-1.21","subject_id":"613a541cf948d295c1df8752","study_id":"6197b3f67c2b5cd3b6d9596a","session_id":"6197b889b224f7a9d010d454","condition":"contingent","relevant_dimensions":["wings","legs"],"bee_group":{"antennae":"X","wings":"1","pattern":"X","legs":"F"},"bonus":1.0200000000000011},{"rt":923.2000000001863,"stimulus":"bees-with-color/bee-B1SF.svg","response":1,"trial_type":"image-button-response","trial_index":51,"time_elapsed":959023,"internal_node_id":"0.0-4.0-0.22","subject_id":"613a541cf948d295c1df8752","study_id":"6197b3f67c2b5cd3b6d9596a","session_id":"6197b889b224f7a9d010d454","condition":"contingent","relevant_dimensions":["wings","legs"],"bee_group":{"antennae":"X","wings":"1","pattern":"X","legs":"F"},"action":"avoid","summary":"good-avoid","bonus":1.0200000000000011},{"rt":530.5999999996275,"stimulus":"\n                    <p><b>Action: <em>avoid</em></b></p>\n                    <p>This is the bee that you just saw.</p>\n                    <img src=\"bees-with-color/bee-B1SF.svg\" width=\"200\">\n                    <p><br>Your bonus pay is unchanged, and remains at $0.54.</p>\n            ","response":0,"trial_type":"html-button-response","trial_index":52,"time_elapsed":959554,"internal_node_id":"0.0-4.0-1.22","subject_id":"613a541cf948d295c1df8752","study_id":"6197b3f67c2b5cd3b6d9596a","session_id":"6197b889b224f7a9d010d454","condition":"contingent","relevant_dimensions":["wings","legs"],"bee_group":{"antennae":"X","wings":"1","pattern":"X","legs":"F"},"bonus":1.0200000000000011},{"rt":1164.9000000003725,"stimulus":"bees-with-color/bee-A1DM.svg","response":0,"trial_type":"image-button-response","trial_index":53,"time_elapsed":960721,"internal_node_id":"0.0-4.0-0.23","subject_id":"613a541cf948d295c1df8752","study_id":"6197b3f67c2b5cd3b6d9596a","session_id":"6197b889b224f7a9d010d454","condition":"contingent","relevant_dimensions":["wings","legs"],"bee_group":{"antennae":"X","wings":"1","pattern":"X","legs":"F"},"action":"harvest","summary":"good-harvest","bonus":1.0200000000000011},{"rt":702.5,"stimulus":"\n                    <p><b>Action: <em>harvest</em></b></p>\n                    <p>This is the bee that you just saw.</p>\n                    <img src=\"bees-with-color/bee-A1DM.svg\" width=\"200\">\n                    <p><span class=\"greenText\"><b>Successful harvest!</b></span><br>Your pay has increased by $0.02. Your bonus pay is now $0.56.</p>\n            ","response":0,"trial_type":"html-button-response","trial_index":54,"time_elapsed":961425,"internal_node_id":"0.0-4.0-1.23","subject_id":"613a541cf948d295c1df8752","study_id":"6197b3f67c2b5cd3b6d9596a","session_id":"6197b889b224f7a9d010d454","condition":"contingent","relevant_dimensions":["wings","legs"],"bee_group":{"antennae":"X","wings":"1","pattern":"X","legs":"F"},"bonus":1.0200000000000011},{"rt":820.7000000001863,"stimulus":"bees-with-color/bee-B1DF.svg","response":0,"trial_type":"image-button-response","trial_index":55,"time_elapsed":962248,"internal_node_id":"0.0-4.0-0.24","subject_id":"613a541cf948d295c1df8752","study_id":"6197b3f67c2b5cd3b6d9596a","session_id":"6197b889b224f7a9d010d454","condition":"contingent","relevant_dimensions":["wings","legs"],"bee_group":{"antennae":"X","wings":"1","pattern":"X","legs":"F"},"action":"harvest","summary":"bad-harvest","bonus":1.0200000000000011},{"rt":3120.5999999996275,"stimulus":"\n                    <p><b>Action: <em>harvest</em></b></p>\n                    <p>This is the bee that you just saw.</p>\n                    <img src=\"bees-with-color/bee-B1DF.svg\" width=\"200\">\n                    <p><span class=\"redText\">Bad choice, the bee was angry.</span><br><b>You have been stung!</b><br>Your pay has been decreased by $0.10. Your bonus pay is now $0.46.</p>\n            ","response":0,"trial_type":"html-button-response","trial_index":56,"time_elapsed":965370,"internal_node_id":"0.0-4.0-1.24","subject_id":"613a541cf948d295c1df8752","study_id":"6197b3f67c2b5cd3b6d9596a","session_id":"6197b889b224f7a9d010d454","condition":"contingent","relevant_dimensions":["wings","legs"],"bee_group":{"antennae":"X","wings":"1","pattern":"X","legs":"F"},"bonus":1.0200000000000011},{"rt":1086.199999999255,"stimulus":"bees-with-color/bee-B2DM.svg","response":0,"trial_type":"image-button-response","trial_index":57,"time_elapsed":966457,"internal_node_id":"0.0-4.0-0.25","subject_id":"613a541cf948d295c1df8752","study_id":"6197b3f67c2b5cd3b6d9596a","session_id":"6197b889b224f7a9d010d454","condition":"contingent","relevant_dimensions":["wings","legs"],"bee_group":{"antennae":"X","wings":"1","pattern":"X","legs":"F"},"action":"harvest","summary":"good-harvest","bonus":1.0200000000000011},{"rt":530.7000000001863,"stimulus":"\n                    <p><b>Action: <em>harvest</em></b></p>\n                    <p>This is the bee that you just saw.</p>\n                    <img src=\"bees-with-color/bee-B2DM.svg\" width=\"200\">\n                    <p><span class=\"greenText\"><b>Successful harvest!</b></span><br>Your pay has increased by $0.02. Your bonus pay is now $0.48.</p>\n            ","response":0,"trial_type":"html-button-response","trial_index":58,"time_elapsed":966989,"internal_node_id":"0.0-4.0-1.25","subject_id":"613a541cf948d295c1df8752","study_id":"6197b3f67c2b5cd3b6d9596a","session_id":"6197b889b224f7a9d010d454","condition":"contingent","relevant_dimensions":["wings","legs"],"bee_group":{"antennae":"X","wings":"1","pattern":"X","legs":"F"},"bonus":1.0200000000000011},{"rt":1627.5,"stimulus":"bees-with-color/bee-A2DF.svg","response":0,"trial_type":"image-button-response","trial_index":59,"time_elapsed":968618,"internal_node_id":"0.0-4.0-0.26","subject_id":"613a541cf948d295c1df8752","study_id":"6197b3f67c2b5cd3b6d9596a","session_id":"6197b889b224f7a9d010d454","condition":"contingent","relevant_dimensions":["wings","legs"],"bee_group":{"antennae":"X","wings":"1","pattern":"X","legs":"F"},"action":"harvest","summary":"good-harvest","bonus":1.0200000000000011},{"rt":536.7999999998137,"stimulus":"\n                    <p><b>Action: <em>harvest</em></b></p>\n                    <p>This is the bee that you just saw.</p>\n                    <img src=\"bees-with-color/bee-A2DF.svg\" width=\"200\">\n                    <p><span class=\"greenText\"><b>Successful harvest!</b></span><br>Your pay has increased by $0.02. Your bonus pay is now $0.50.</p>\n            ","response":0,"trial_type":"html-button-response","trial_index":60,"time_elapsed":969156,"internal_node_id":"0.0-4.0-1.26","subject_id":"613a541cf948d295c1df8752","study_id":"6197b3f67c2b5cd3b6d9596a","session_id":"6197b889b224f7a9d010d454","condition":"contingent","relevant_dimensions":["wings","legs"],"bee_group":{"antennae":"X","wings":"1","pattern":"X","legs":"F"},"bonus":1.0200000000000011},{"rt":877,"stimulus":"bees-with-color/bee-A2SM.svg","response":0,"trial_type":"image-button-response","trial_index":61,"time_elapsed":970034,"internal_node_id":"0.0-4.0-0.27","subject_id":"613a541cf948d295c1df8752","study_id":"6197b3f67c2b5cd3b6d9596a","session_id":"6197b889b224f7a9d010d454","condition":"contingent","relevant_dimensions":["wings","legs"],"bee_group":{"antennae":"X","wings":"1","pattern":"X","legs":"F"},"action":"harvest","summary":"good-harvest","bonus":1.0200000000000011},{"rt":530.5,"stimulus":"\n                    <p><b>Action: <em>harvest</em></b></p>\n                    <p>This is the bee that you just saw.</p>\n                    <img src=\"bees-with-color/bee-A2SM.svg\" width=\"200\">\n                    <p><span class=\"greenText\"><b>Successful harvest!</b></span><br>Your pay has increased by $0.02. Your bonus pay is now $0.52.</p>\n            ","response":0,"trial_type":"html-button-response","trial_index":62,"time_elapsed":970566,"internal_node_id":"0.0-4.0-1.27","subject_id":"613a541cf948d295c1df8752","study_id":"6197b3f67c2b5cd3b6d9596a","session_id":"6197b889b224f7a9d010d454","condition":"contingent","relevant_dimensions":["wings","legs"],"bee_group":{"antennae":"X","wings":"1","pattern":"X","legs":"F"},"bonus":1.0200000000000011},{"rt":1775.6000000005588,"stimulus":"bees-with-color/bee-B2SF.svg","response":0,"trial_type":"image-button-response","trial_index":63,"time_elapsed":972342,"internal_node_id":"0.0-4.0-0.28","subject_id":"613a541cf948d295c1df8752","study_id":"6197b3f67c2b5cd3b6d9596a","session_id":"6197b889b224f7a9d010d454","condition":"contingent","relevant_dimensions":["wings","legs"],"bee_group":{"antennae":"X","wings":"1","pattern":"X","legs":"F"},"action":"harvest","summary":"good-harvest","bonus":1.0200000000000011},{"rt":560.7999999998137,"stimulus":"\n                    <p><b>Action: <em>harvest</em></b></p>\n                    <p>This is the bee that you just saw.</p>\n                    <img src=\"bees-with-color/bee-B2SF.svg\" width=\"200\">\n                    <p><span class=\"greenText\"><b>Successful harvest!</b></span><br>Your pay has increased by $0.02. Your bonus pay is now $0.54.</p>\n            ","response":0,"trial_type":"html-button-response","trial_index":64,"time_elapsed":972904,"internal_node_id":"0.0-4.0-1.28","subject_id":"613a541cf948d295c1df8752","study_id":"6197b3f67c2b5cd3b6d9596a","session_id":"6197b889b224f7a9d010d454","condition":"contingent","relevant_dimensions":["wings","legs"],"bee_group":{"antennae":"X","wings":"1","pattern":"X","legs":"F"},"bonus":1.0200000000000011},{"rt":2675.2999999998137,"stimulus":"bees-with-color/bee-A1DF.svg","response":1,"trial_type":"image-button-response","trial_index":65,"time_elapsed":975581,"internal_node_id":"0.0-4.0-0.29","subject_id":"613a541cf948d295c1df8752","study_id":"6197b3f67c2b5cd3b6d9596a","session_id":"6197b889b224f7a9d010d454","condition":"contingent","relevant_dimensions":["wings","legs"],"bee_group":{"antennae":"X","wings":"1","pattern":"X","legs":"F"},"action":"avoid","summary":"good-avoid","bonus":1.0200000000000011},{"rt":790.7000000001863,"stimulus":"\n                    <p><b>Action: <em>avoid</em></b></p>\n                    <p>This is the bee that you just saw.</p>\n                    <img src=\"bees-with-color/bee-A1DF.svg\" width=\"200\">\n                    <p><br>Your bonus pay is unchanged, and remains at $0.54.</p>\n            ","response":0,"trial_type":"html-button-response","trial_index":66,"time_elapsed":976373,"internal_node_id":"0.0-4.0-1.29","subject_id":"613a541cf948d295c1df8752","study_id":"6197b3f67c2b5cd3b6d9596a","session_id":"6197b889b224f7a9d010d454","condition":"contingent","relevant_dimensions":["wings","legs"],"bee_group":{"antennae":"X","wings":"1","pattern":"X","legs":"F"},"bonus":1.0200000000000011},{"rt":990.6000000005588,"stimulus":"bees-with-color/bee-A2DM.svg","response":0,"trial_type":"image-button-response","trial_index":67,"time_elapsed":977365,"internal_node_id":"0.0-4.0-0.30","subject_id":"613a541cf948d295c1df8752","study_id":"6197b3f67c2b5cd3b6d9596a","session_id":"6197b889b224f7a9d010d454","condition":"contingent","relevant_dimensions":["wings","legs"],"bee_group":{"antennae":"X","wings":"1","pattern":"X","legs":"F"},"action":"harvest","summary":"good-harvest","bonus":1.0200000000000011},{"rt":1196.7999999998137,"stimulus":"\n                    <p><b>Action: <em>harvest</em></b></p>\n                    <p>This is the bee that you just saw.</p>\n                    <img src=\"bees-with-color/bee-A2DM.svg\" width=\"200\">\n                    <p><span class=\"greenText\"><b>Successful harvest!</b></span><br>Your pay has increased by $0.02. Your bonus pay is now $0.56.</p>\n            ","response":0,"trial_type":"html-button-response","trial_index":68,"time_elapsed":978563,"internal_node_id":"0.0-4.0-1.30","subject_id":"613a541cf948d295c1df8752","study_id":"6197b3f67c2b5cd3b6d9596a","session_id":"6197b889b224f7a9d010d454","condition":"contingent","relevant_dimensions":["wings","legs"],"bee_group":{"antennae":"X","wings":"1","pattern":"X","legs":"F"},"bonus":1.0200000000000011},{"rt":2385.0999999996275,"stimulus":"bees-with-color/bee-A1SM.svg","response":0,"trial_type":"image-button-response","trial_index":69,"time_elapsed":980949,"internal_node_id":"0.0-4.0-0.31","subject_id":"613a541cf948d295c1df8752","study_id":"6197b3f67c2b5cd3b6d9596a","session_id":"6197b889b224f7a9d010d454","condition":"contingent","relevant_dimensions":["wings","legs"],"bee_group":{"antennae":"X","wings":"1","pattern":"X","legs":"F"},"action":"harvest","summary":"good-harvest","bonus":1.0200000000000011},{"rt":587,"stimulus":"\n                    <p><b>Action: <em>harvest</em></b></p>\n                    <p>This is the bee that you just saw.</p>\n                    <img src=\"bees-with-color/bee-A1SM.svg\" width=\"200\">\n                    <p><span class=\"greenText\"><b>Successful harvest!</b></span><br>Your pay has increased by $0.02. Your bonus pay is now $0.58.</p>\n            ","response":0,"trial_type":"html-button-response","trial_index":70,"time_elapsed":981538,"internal_node_id":"0.0-4.0-1.31","subject_id":"613a541cf948d295c1df8752","study_id":"6197b3f67c2b5cd3b6d9596a","session_id":"6197b889b224f7a9d010d454","condition":"contingent","relevant_dimensions":["wings","legs"],"bee_group":{"antennae":"X","wings":"1","pattern":"X","legs":"F"},"bonus":1.0200000000000011},{"rt":1280.2999999998137,"stimulus":"bees-with-color/bee-B1SM.svg","response":1,"trial_type":"image-button-response","trial_index":71,"time_elapsed":982819,"internal_node_id":"0.0-4.0-0.32","subject_id":"613a541cf948d295c1df8752","study_id":"6197b3f67c2b5cd3b6d9596a","session_id":"6197b889b224f7a9d010d454","condition":"contingent","relevant_dimensions":["wings","legs"],"bee_group":{"antennae":"X","wings":"1","pattern":"X","legs":"F"},"action":"avoid","summary":"bad-avoid","bonus":1.0200000000000011},{"rt":563.0999999996275,"stimulus":"\n                    <p><b>Action: <em>avoid</em></b></p>\n                    <p>This is the bee that you just saw.</p>\n                    <img src=\"bees-with-color/bee-B1SM.svg\" width=\"200\">\n                    <p><br>Your bonus pay is unchanged, and remains at $0.58.</p>\n            ","response":0,"trial_type":"html-button-response","trial_index":72,"time_elapsed":983384,"internal_node_id":"0.0-4.0-1.32","subject_id":"613a541cf948d295c1df8752","study_id":"6197b3f67c2b5cd3b6d9596a","session_id":"6197b889b224f7a9d010d454","condition":"contingent","relevant_dimensions":["wings","legs"],"bee_group":{"antennae":"X","wings":"1","pattern":"X","legs":"F"},"bonus":1.0200000000000011},{"rt":759,"stimulus":"bees-with-color/bee-A1DF.svg","response":0,"trial_type":"image-button-response","trial_index":73,"time_elapsed":984144,"internal_node_id":"0.0-4.0-0.33","subject_id":"613a541cf948d295c1df8752","study_id":"6197b3f67c2b5cd3b6d9596a","session_id":"6197b889b224f7a9d010d454","condition":"contingent","relevant_dimensions":["wings","legs"],"bee_group":{"antennae":"X","wings":"1","pattern":"X","legs":"F"},"action":"harvest","summary":"bad-harvest","bonus":1.0200000000000011},{"rt":2597,"stimulus":"\n                    <p><b>Action: <em>harvest</em></b></p>\n                    <p>This is the bee that you just saw.</p>\n                    <img src=\"bees-with-color/bee-A1DF.svg\" width=\"200\">\n                    <p><span class=\"redText\">Bad choice, the bee was angry.</span><br><b>You have been stung!</b><br>Your pay has been decreased by $0.10. Your bonus pay is now $0.48.</p>\n            ","response":0,"trial_type":"html-button-response","trial_index":74,"time_elapsed":986743,"internal_node_id":"0.0-4.0-1.33","subject_id":"613a541cf948d295c1df8752","study_id":"6197b3f67c2b5cd3b6d9596a","session_id":"6197b889b224f7a9d010d454","condition":"contingent","relevant_dimensions":["wings","legs"],"bee_group":{"antennae":"X","wings":"1","pattern":"X","legs":"F"},"bonus":1.0200000000000011},{"rt":850,"stimulus":"bees-with-color/bee-B2DM.svg","response":0,"trial_type":"image-button-response","trial_index":75,"time_elapsed":987595,"internal_node_id":"0.0-4.0-0.34","subject_id":"613a541cf948d295c1df8752","study_id":"6197b3f67c2b5cd3b6d9596a","session_id":"6197b889b224f7a9d010d454","condition":"contingent","relevant_dimensions":["wings","legs"],"bee_group":{"antennae":"X","wings":"1","pattern":"X","legs":"F"},"action":"harvest","summary":"good-harvest","bonus":1.0200000000000011},{"rt":1650.7000000001863,"stimulus":"\n                    <p><b>Action: <em>harvest</em></b></p>\n                    <p>This is the bee that you just saw.</p>\n                    <img src=\"bees-with-color/bee-B2DM.svg\" width=\"200\">\n                    <p><span class=\"greenText\"><b>Successful harvest!</b></span><br>Your pay has increased by $0.02. Your bonus pay is now $0.50.</p>\n            ","response":0,"trial_type":"html-button-response","trial_index":76,"time_elapsed":989247,"internal_node_id":"0.0-4.0-1.34","subject_id":"613a541cf948d295c1df8752","study_id":"6197b3f67c2b5cd3b6d9596a","session_id":"6197b889b224f7a9d010d454","condition":"contingent","relevant_dimensions":["wings","legs"],"bee_group":{"antennae":"X","wings":"1","pattern":"X","legs":"F"},"bonus":1.0200000000000011},{"rt":1673,"stimulus":"bees-with-color/bee-B2DF.svg","response":0,"trial_type":"image-button-response","trial_index":77,"time_elapsed":990921,"internal_node_id":"0.0-4.0-0.35","subject_id":"613a541cf948d295c1df8752","study_id":"6197b3f67c2b5cd3b6d9596a","session_id":"6197b889b224f7a9d010d454","condition":"contingent","relevant_dimensions":["wings","legs"],"bee_group":{"antennae":"X","wings":"1","pattern":"X","legs":"F"},"action":"harvest","summary":"good-harvest","bonus":1.0200000000000011},{"rt":866.7999999998137,"stimulus":"\n                    <p><b>Action: <em>harvest</em></b></p>\n                    <p>This is the bee that you just saw.</p>\n                    <img src=\"bees-with-color/bee-B2DF.svg\" width=\"200\">\n                    <p><span class=\"greenText\"><b>Successful harvest!</b></span><br>Your pay has increased by $0.02. Your bonus pay is now $0.52.</p>\n            ","response":0,"trial_type":"html-button-response","trial_index":78,"time_elapsed":991789,"internal_node_id":"0.0-4.0-1.35","subject_id":"613a541cf948d295c1df8752","study_id":"6197b3f67c2b5cd3b6d9596a","session_id":"6197b889b224f7a9d010d454","condition":"contingent","relevant_dimensions":["wings","legs"],"bee_group":{"antennae":"X","wings":"1","pattern":"X","legs":"F"},"bonus":1.0200000000000011},{"rt":874.5999999996275,"stimulus":"bees-with-color/bee-A1SM.svg","response":0,"trial_type":"image-button-response","trial_index":79,"time_elapsed":992665,"internal_node_id":"0.0-4.0-0.36","subject_id":"613a541cf948d295c1df8752","study_id":"6197b3f67c2b5cd3b6d9596a","session_id":"6197b889b224f7a9d010d454","condition":"contingent","relevant_dimensions":["wings","legs"],"bee_group":{"antennae":"X","wings":"1","pattern":"X","legs":"F"},"action":"harvest","summary":"good-harvest","bonus":1.0200000000000011},{"rt":546.1000000005588,"stimulus":"\n                    <p><b>Action: <em>harvest</em></b></p>\n                    <p>This is the bee that you just saw.</p>\n                    <img src=\"bees-with-color/bee-A1SM.svg\" width=\"200\">\n                    <p><span class=\"greenText\"><b>Successful harvest!</b></span><br>Your pay has increased by $0.02. Your bonus pay is now $0.54.</p>\n            ","response":0,"trial_type":"html-button-response","trial_index":80,"time_elapsed":993213,"internal_node_id":"0.0-4.0-1.36","subject_id":"613a541cf948d295c1df8752","study_id":"6197b3f67c2b5cd3b6d9596a","session_id":"6197b889b224f7a9d010d454","condition":"contingent","relevant_dimensions":["wings","legs"],"bee_group":{"antennae":"X","wings":"1","pattern":"X","legs":"F"},"bonus":1.0200000000000011},{"rt":1218.7000000001863,"stimulus":"bees-with-color/bee-B2SM.svg","response":0,"trial_type":"image-button-response","trial_index":81,"time_elapsed":994433,"internal_node_id":"0.0-4.0-0.37","subject_id":"613a541cf948d295c1df8752","study_id":"6197b3f67c2b5cd3b6d9596a","session_id":"6197b889b224f7a9d010d454","condition":"contingent","relevant_dimensions":["wings","legs"],"bee_group":{"antennae":"X","wings":"1","pattern":"X","legs":"F"},"action":"harvest","summary":"good-harvest","bonus":1.0200000000000011},{"rt":696.5,"stimulus":"\n                    <p><b>Action: <em>harvest</em></b></p>\n                    <p>This is the bee that you just saw.</p>\n                    <img src=\"bees-with-color/bee-B2SM.svg\" width=\"200\">\n                    <p><span class=\"greenText\"><b>Successful harvest!</b></span><br>Your pay has increased by $0.02. Your bonus pay is now $0.56.</p>\n            ","response":0,"trial_type":"html-button-response","trial_index":82,"time_elapsed":995131,"internal_node_id":"0.0-4.0-1.37","subject_id":"613a541cf948d295c1df8752","study_id":"6197b3f67c2b5cd3b6d9596a","session_id":"6197b889b224f7a9d010d454","condition":"contingent","relevant_dimensions":["wings","legs"],"bee_group":{"antennae":"X","wings":"1","pattern":"X","legs":"F"},"bonus":1.0200000000000011},{"rt":1030.7000000001863,"stimulus":"bees-with-color/bee-A2DF.svg","response":0,"trial_type":"image-button-response","trial_index":83,"time_elapsed":996164,"internal_node_id":"0.0-4.0-0.38","subject_id":"613a541cf948d295c1df8752","study_id":"6197b3f67c2b5cd3b6d9596a","session_id":"6197b889b224f7a9d010d454","condition":"contingent","relevant_dimensions":["wings","legs"],"bee_group":{"antennae":"X","wings":"1","pattern":"X","legs":"F"},"action":"harvest","summary":"good-harvest","bonus":1.0200000000000011},{"rt":702.5,"stimulus":"\n                    <p><b>Action: <em>harvest</em></b></p>\n                    <p>This is the bee that you just saw.</p>\n                    <img src=\"bees-with-color/bee-A2DF.svg\" width=\"200\">\n                    <p><span class=\"greenText\"><b>Successful harvest!</b></span><br>Your pay has increased by $0.02. Your bonus pay is now $0.58.</p>\n            ","response":0,"trial_type":"html-button-response","trial_index":84,"time_elapsed":996868,"internal_node_id":"0.0-4.0-1.38","subject_id":"613a541cf948d295c1df8752","study_id":"6197b3f67c2b5cd3b6d9596a","session_id":"6197b889b224f7a9d010d454","condition":"contingent","relevant_dimensions":["wings","legs"],"bee_group":{"antennae":"X","wings":"1","pattern":"X","legs":"F"},"bonus":1.0200000000000011},{"rt":2745.2000000001863,"stimulus":"bees-with-color/bee-B1DF.svg","response":1,"trial_type":"image-button-response","trial_index":85,"time_elapsed":999614,"internal_node_id":"0.0-4.0-0.39","subject_id":"613a541cf948d295c1df8752","study_id":"6197b3f67c2b5cd3b6d9596a","session_id":"6197b889b224f7a9d010d454","condition":"contingent","relevant_dimensions":["wings","legs"],"bee_group":{"antennae":"X","wings":"1","pattern":"X","legs":"F"},"action":"avoid","summary":"good-avoid","bonus":1.0200000000000011},{"rt":524,"stimulus":"\n                    <p><b>Action: <em>avoid</em></b></p>\n                    <p>This is the bee that you just saw.</p>\n                    <img src=\"bees-with-color/bee-B1DF.svg\" width=\"200\">\n                    <p><br>Your bonus pay is unchanged, and remains at $0.58.</p>\n            ","response":0,"trial_type":"html-button-response","trial_index":86,"time_elapsed":1000140,"internal_node_id":"0.0-4.0-1.39","subject_id":"613a541cf948d295c1df8752","study_id":"6197b3f67c2b5cd3b6d9596a","session_id":"6197b889b224f7a9d010d454","condition":"contingent","relevant_dimensions":["wings","legs"],"bee_group":{"antennae":"X","wings":"1","pattern":"X","legs":"F"},"bonus":1.0200000000000011},{"rt":1844.7000000001863,"stimulus":"bees-with-color/bee-A1SF.svg","response":0,"trial_type":"image-button-response","trial_index":87,"time_elapsed":1001986,"internal_node_id":"0.0-4.0-0.40","subject_id":"613a541cf948d295c1df8752","study_id":"6197b3f67c2b5cd3b6d9596a","session_id":"6197b889b224f7a9d010d454","condition":"contingent","relevant_dimensions":["wings","legs"],"bee_group":{"antennae":"X","wings":"1","pattern":"X","legs":"F"},"action":"harvest","summary":"bad-harvest","bonus":1.0200000000000011},{"rt":2236.7000000001863,"stimulus":"\n                    <p><b>Action: <em>harvest</em></b></p>\n                    <p>This is the bee that you just saw.</p>\n                    <img src=\"bees-with-color/bee-A1SF.svg\" width=\"200\">\n                    <p><span class=\"redText\">Bad choice, the bee was angry.</span><br><b>You have been stung!</b><br>Your pay has been decreased by $0.10. Your bonus pay is now $0.48.</p>\n            ","response":0,"trial_type":"html-button-response","trial_index":88,"time_elapsed":1004225,"internal_node_id":"0.0-4.0-1.40","subject_id":"613a541cf948d295c1df8752","study_id":"6197b3f67c2b5cd3b6d9596a","session_id":"6197b889b224f7a9d010d454","condition":"contingent","relevant_dimensions":["wings","legs"],"bee_group":{"antennae":"X","wings":"1","pattern":"X","legs":"F"},"bonus":1.0200000000000011},{"rt":992.6999999992549,"stimulus":"bees-with-color/bee-B1DM.svg","response":0,"trial_type":"image-button-response","trial_index":89,"time_elapsed":1005219,"internal_node_id":"0.0-4.0-0.41","subject_id":"613a541cf948d295c1df8752","study_id":"6197b3f67c2b5cd3b6d9596a","session_id":"6197b889b224f7a9d010d454","condition":"contingent","relevant_dimensions":["wings","legs"],"bee_group":{"antennae":"X","wings":"1","pattern":"X","legs":"F"},"action":"harvest","summary":"good-harvest","bonus":1.0200000000000011},{"rt":614.7999999998137,"stimulus":"\n                    <p><b>Action: <em>harvest</em></b></p>\n                    <p>This is the bee that you just saw.</p>\n                    <img src=\"bees-with-color/bee-B1DM.svg\" width=\"200\">\n                    <p><span class=\"greenText\"><b>Successful harvest!</b></span><br>Your pay has increased by $0.02. Your bonus pay is now $0.50.</p>\n            ","response":0,"trial_type":"html-button-response","trial_index":90,"time_elapsed":1005837,"internal_node_id":"0.0-4.0-1.41","subject_id":"613a541cf948d295c1df8752","study_id":"6197b3f67c2b5cd3b6d9596a","session_id":"6197b889b224f7a9d010d454","condition":"contingent","relevant_dimensions":["wings","legs"],"bee_group":{"antennae":"X","wings":"1","pattern":"X","legs":"F"},"bonus":1.0200000000000011},{"rt":1046.5999999996275,"stimulus":"bees-with-color/bee-B2SF.svg","response":0,"trial_type":"image-button-response","trial_index":91,"time_elapsed":1006885,"internal_node_id":"0.0-4.0-0.42","subject_id":"613a541cf948d295c1df8752","study_id":"6197b3f67c2b5cd3b6d9596a","session_id":"6197b889b224f7a9d010d454","condition":"contingent","relevant_dimensions":["wings","legs"],"bee_group":{"antennae":"X","wings":"1","pattern":"X","legs":"F"},"action":"harvest","summary":"good-harvest","bonus":1.0200000000000011},{"rt":506.09999999962747,"stimulus":"\n                    <p><b>Action: <em>harvest</em></b></p>\n                    <p>This is the bee that you just saw.</p>\n                    <img src=\"bees-with-color/bee-B2SF.svg\" width=\"200\">\n                    <p><span class=\"greenText\"><b>Successful harvest!</b></span><br>Your pay has increased by $0.02. Your bonus pay is now $0.52.</p>\n            ","response":0,"trial_type":"html-button-response","trial_index":92,"time_elapsed":1007393,"internal_node_id":"0.0-4.0-1.42","subject_id":"613a541cf948d295c1df8752","study_id":"6197b3f67c2b5cd3b6d9596a","session_id":"6197b889b224f7a9d010d454","condition":"contingent","relevant_dimensions":["wings","legs"],"bee_group":{"antennae":"X","wings":"1","pattern":"X","legs":"F"},"bonus":1.0200000000000011},{"rt":1189.2999999998137,"stimulus":"bees-with-color/bee-A1DM.svg","response":0,"trial_type":"image-button-response","trial_index":93,"time_elapsed":1008583,"internal_node_id":"0.0-4.0-0.43","subject_id":"613a541cf948d295c1df8752","study_id":"6197b3f67c2b5cd3b6d9596a","session_id":"6197b889b224f7a9d010d454","condition":"contingent","relevant_dimensions":["wings","legs"],"bee_group":{"antennae":"X","wings":"1","pattern":"X","legs":"F"},"action":"harvest","summary":"good-harvest","bonus":1.0200000000000011},{"rt":468.5,"stimulus":"\n                    <p><b>Action: <em>harvest</em></b></p>\n                    <p>This is the bee that you just saw.</p>\n                    <img src=\"bees-with-color/bee-A1DM.svg\" width=\"200\">\n                    <p><span class=\"greenText\"><b>Successful harvest!</b></span><br>Your pay has increased by $0.02. Your bonus pay is now $0.54.</p>\n            ","response":0,"trial_type":"html-button-response","trial_index":94,"time_elapsed":1009053,"internal_node_id":"0.0-4.0-1.43","subject_id":"613a541cf948d295c1df8752","study_id":"6197b3f67c2b5cd3b6d9596a","session_id":"6197b889b224f7a9d010d454","condition":"contingent","relevant_dimensions":["wings","legs"],"bee_group":{"antennae":"X","wings":"1","pattern":"X","legs":"F"},"bonus":1.0200000000000011},{"rt":719.2999999998137,"stimulus":"bees-with-color/bee-A2DM.svg","response":0,"trial_type":"image-button-response","trial_index":95,"time_elapsed":1009773,"internal_node_id":"0.0-4.0-0.44","subject_id":"613a541cf948d295c1df8752","study_id":"6197b3f67c2b5cd3b6d9596a","session_id":"6197b889b224f7a9d010d454","condition":"contingent","relevant_dimensions":["wings","legs"],"bee_group":{"antennae":"X","wings":"1","pattern":"X","legs":"F"},"action":"harvest","summary":"good-harvest","bonus":1.0200000000000011},{"rt":528.2999999998137,"stimulus":"\n                    <p><b>Action: <em>harvest</em></b></p>\n                    <p>This is the bee that you just saw.</p>\n                    <img src=\"bees-with-color/bee-A2DM.svg\" width=\"200\">\n                    <p><span class=\"greenText\"><b>Successful harvest!</b></span><br>Your pay has increased by $0.02. Your bonus pay is now $0.56.</p>\n            ","response":0,"trial_type":"html-button-response","trial_index":96,"time_elapsed":1010303,"internal_node_id":"0.0-4.0-1.44","subject_id":"613a541cf948d295c1df8752","study_id":"6197b3f67c2b5cd3b6d9596a","session_id":"6197b889b224f7a9d010d454","condition":"contingent","relevant_dimensions":["wings","legs"],"bee_group":{"antennae":"X","wings":"1","pattern":"X","legs":"F"},"bonus":1.0200000000000011},{"rt":1009.1000000005588,"stimulus":"bees-with-color/bee-A2SF.svg","response":0,"trial_type":"image-button-response","trial_index":97,"time_elapsed":1011313,"internal_node_id":"0.0-4.0-0.45","subject_id":"613a541cf948d295c1df8752","study_id":"6197b3f67c2b5cd3b6d9596a","session_id":"6197b889b224f7a9d010d454","condition":"contingent","relevant_dimensions":["wings","legs"],"bee_group":{"antennae":"X","wings":"1","pattern":"X","legs":"F"},"action":"harvest","summary":"good-harvest","bonus":1.0200000000000011},{"rt":485.09999999962747,"stimulus":"\n                    <p><b>Action: <em>harvest</em></b></p>\n                    <p>This is the bee that you just saw.</p>\n                    <img src=\"bees-with-color/bee-A2SF.svg\" width=\"200\">\n                    <p><span class=\"greenText\"><b>Successful harvest!</b></span><br>Your pay has increased by $0.02. Your bonus pay is now $0.58.</p>\n            ","response":0,"trial_type":"html-button-response","trial_index":98,"time_elapsed":1011800,"internal_node_id":"0.0-4.0-1.45","subject_id":"613a541cf948d295c1df8752","study_id":"6197b3f67c2b5cd3b6d9596a","session_id":"6197b889b224f7a9d010d454","condition":"contingent","relevant_dimensions":["wings","legs"],"bee_group":{"antennae":"X","wings":"1","pattern":"X","legs":"F"},"bonus":1.0200000000000011},{"rt":1273.1000000005588,"stimulus":"bees-with-color/bee-B1SF.svg","response":1,"trial_type":"image-button-response","trial_index":99,"time_elapsed":1013074,"internal_node_id":"0.0-4.0-0.46","subject_id":"613a541cf948d295c1df8752","study_id":"6197b3f67c2b5cd3b6d9596a","session_id":"6197b889b224f7a9d010d454","condition":"contingent","relevant_dimensions":["wings","legs"],"bee_group":{"antennae":"X","wings":"1","pattern":"X","legs":"F"},"action":"avoid","summary":"good-avoid","bonus":1.0200000000000011},{"rt":516.5,"stimulus":"\n                    <p><b>Action: <em>avoid</em></b></p>\n                    <p>This is the bee that you just saw.</p>\n                    <img src=\"bees-with-color/bee-B1SF.svg\" width=\"200\">\n                    <p><br>Your bonus pay is unchanged, and remains at $0.58.</p>\n            ","response":0,"trial_type":"html-button-response","trial_index":100,"time_elapsed":1013592,"internal_node_id":"0.0-4.0-1.46","subject_id":"613a541cf948d295c1df8752","study_id":"6197b3f67c2b5cd3b6d9596a","session_id":"6197b889b224f7a9d010d454","condition":"contingent","relevant_dimensions":["wings","legs"],"bee_group":{"antennae":"X","wings":"1","pattern":"X","legs":"F"},"bonus":1.0200000000000011},{"rt":694.5999999996275,"stimulus":"bees-with-color/bee-A2SM.svg","response":0,"trial_type":"image-button-response","trial_index":101,"time_elapsed":1014288,"internal_node_id":"0.0-4.0-0.47","subject_id":"613a541cf948d295c1df8752","study_id":"6197b3f67c2b5cd3b6d9596a","session_id":"6197b889b224f7a9d010d454","condition":"contingent","relevant_dimensions":["wings","legs"],"bee_group":{"antennae":"X","wings":"1","pattern":"X","legs":"F"},"action":"harvest","summary":"good-harvest","bonus":1.0200000000000011},{"rt":851.1000000005588,"stimulus":"\n                    <p><b>Action: <em>harvest</em></b></p>\n                    <p>This is the bee that you just saw.</p>\n                    <img src=\"bees-with-color/bee-A2SM.svg\" width=\"200\">\n                    <p><span class=\"greenText\"><b>Successful harvest!</b></span><br>Your pay has increased by $0.02. Your bonus pay is now $0.60.</p>\n            ","response":0,"trial_type":"html-button-response","trial_index":102,"time_elapsed":1015140,"internal_node_id":"0.0-4.0-1.47","subject_id":"613a541cf948d295c1df8752","study_id":"6197b3f67c2b5cd3b6d9596a","session_id":"6197b889b224f7a9d010d454","condition":"contingent","relevant_dimensions":["wings","legs"],"bee_group":{"antennae":"X","wings":"1","pattern":"X","legs":"F"},"bonus":1.0200000000000011},{"rt":1774.6000000005588,"stimulus":"bees-with-color/bee-B1SM.svg","response":1,"trial_type":"image-button-response","trial_index":103,"time_elapsed":1016916,"internal_node_id":"0.0-4.0-0.48","subject_id":"613a541cf948d295c1df8752","study_id":"6197b3f67c2b5cd3b6d9596a","session_id":"6197b889b224f7a9d010d454","condition":"contingent","relevant_dimensions":["wings","legs"],"bee_group":{"antennae":"X","wings":"1","pattern":"X","legs":"F"},"action":"avoid","summary":"bad-avoid","bonus":1.0200000000000011},{"rt":437,"stimulus":"\n                    <p><b>Action: <em>avoid</em></b></p>\n                    <p>This is the bee that you just saw.</p>\n                    <img src=\"bees-with-color/bee-B1SM.svg\" width=\"200\">\n                    <p><br>Your bonus pay is unchanged, and remains at $0.60.</p>\n            ","response":0,"trial_type":"html-button-response","trial_index":104,"time_elapsed":1017354,"internal_node_id":"0.0-4.0-1.48","subject_id":"613a541cf948d295c1df8752","study_id":"6197b3f67c2b5cd3b6d9596a","session_id":"6197b889b224f7a9d010d454","condition":"contingent","relevant_dimensions":["wings","legs"],"bee_group":{"antennae":"X","wings":"1","pattern":"X","legs":"F"},"bonus":1.0200000000000011},{"rt":1016.7999999998137,"stimulus":"bees-with-color/bee-A2DF.svg","response":0,"trial_type":"image-button-response","trial_index":105,"time_elapsed":1018372,"internal_node_id":"0.0-4.0-0.49","subject_id":"613a541cf948d295c1df8752","study_id":"6197b3f67c2b5cd3b6d9596a","session_id":"6197b889b224f7a9d010d454","condition":"contingent","relevant_dimensions":["wings","legs"],"bee_group":{"antennae":"X","wings":"1","pattern":"X","legs":"F"},"action":"harvest","summary":"good-harvest","bonus":1.0200000000000011},{"rt":899,"stimulus":"\n                    <p><b>Action: <em>harvest</em></b></p>\n                    <p>This is the bee that you just saw.</p>\n                    <img src=\"bees-with-color/bee-A2DF.svg\" width=\"200\">\n                    <p><span class=\"greenText\"><b>Successful harvest!</b></span><br>Your pay has increased by $0.02. Your bonus pay is now $0.62.</p>\n            ","response":0,"trial_type":"html-button-response","trial_index":106,"time_elapsed":1019272,"internal_node_id":"0.0-4.0-1.49","subject_id":"613a541cf948d295c1df8752","study_id":"6197b3f67c2b5cd3b6d9596a","session_id":"6197b889b224f7a9d010d454","condition":"contingent","relevant_dimensions":["wings","legs"],"bee_group":{"antennae":"X","wings":"1","pattern":"X","legs":"F"},"bonus":1.0200000000000011},{"rt":1329.2000000001863,"stimulus":"bees-with-color/bee-A2SM.svg","response":0,"trial_type":"image-button-response","trial_index":107,"time_elapsed":1020603,"internal_node_id":"0.0-4.0-0.50","subject_id":"613a541cf948d295c1df8752","study_id":"6197b3f67c2b5cd3b6d9596a","session_id":"6197b889b224f7a9d010d454","condition":"contingent","relevant_dimensions":["wings","legs"],"bee_group":{"antennae":"X","wings":"1","pattern":"X","legs":"F"},"action":"harvest","summary":"good-harvest","bonus":1.0200000000000011},{"rt":506.8999999994412,"stimulus":"\n                    <p><b>Action: <em>harvest</em></b></p>\n                    <p>This is the bee that you just saw.</p>\n                    <img src=\"bees-with-color/bee-A2SM.svg\" width=\"200\">\n                    <p><span class=\"greenText\"><b>Successful harvest!</b></span><br>Your pay has increased by $0.02. Your bonus pay is now $0.64.</p>\n            ","response":0,"trial_type":"html-button-response","trial_index":108,"time_elapsed":1021111,"internal_node_id":"0.0-4.0-1.50","subject_id":"613a541cf948d295c1df8752","study_id":"6197b3f67c2b5cd3b6d9596a","session_id":"6197b889b224f7a9d010d454","condition":"contingent","relevant_dimensions":["wings","legs"],"bee_group":{"antennae":"X","wings":"1","pattern":"X","legs":"F"},"bonus":1.0200000000000011},{"rt":1038.7000000001863,"stimulus":"bees-with-color/bee-A2DM.svg","response":0,"trial_type":"image-button-response","trial_index":109,"time_elapsed":1022151,"internal_node_id":"0.0-4.0-0.51","subject_id":"613a541cf948d295c1df8752","study_id":"6197b3f67c2b5cd3b6d9596a","session_id":"6197b889b224f7a9d010d454","condition":"contingent","relevant_dimensions":["wings","legs"],"bee_group":{"antennae":"X","wings":"1","pattern":"X","legs":"F"},"action":"harvest","summary":"good-harvest","bonus":1.0200000000000011},{"rt":500.70000000018626,"stimulus":"\n                    <p><b>Action: <em>harvest</em></b></p>\n                    <p>This is the bee that you just saw.</p>\n                    <img src=\"bees-with-color/bee-A2DM.svg\" width=\"200\">\n                    <p><span class=\"greenText\"><b>Successful harvest!</b></span><br>Your pay has increased by $0.02. Your bonus pay is now $0.66.</p>\n            ","response":0,"trial_type":"html-button-response","trial_index":110,"time_elapsed":1022653,"internal_node_id":"0.0-4.0-1.51","subject_id":"613a541cf948d295c1df8752","study_id":"6197b3f67c2b5cd3b6d9596a","session_id":"6197b889b224f7a9d010d454","condition":"contingent","relevant_dimensions":["wings","legs"],"bee_group":{"antennae":"X","wings":"1","pattern":"X","legs":"F"},"bonus":1.0200000000000011},{"rt":1915,"stimulus":"bees-with-color/bee-A1SF.svg","response":1,"trial_type":"image-button-response","trial_index":111,"time_elapsed":1024569,"internal_node_id":"0.0-4.0-0.52","subject_id":"613a541cf948d295c1df8752","study_id":"6197b3f67c2b5cd3b6d9596a","session_id":"6197b889b224f7a9d010d454","condition":"contingent","relevant_dimensions":["wings","legs"],"bee_group":{"antennae":"X","wings":"1","pattern":"X","legs":"F"},"action":"avoid","summary":"good-avoid","bonus":1.0200000000000011},{"rt":436.5,"stimulus":"\n                    <p><b>Action: <em>avoid</em></b></p>\n                    <p>This is the bee that you just saw.</p>\n                    <img src=\"bees-with-color/bee-A1SF.svg\" width=\"200\">\n                    <p><br>Your bonus pay is unchanged, and remains at $0.66.</p>\n            ","response":0,"trial_type":"html-button-response","trial_index":112,"time_elapsed":1025007,"internal_node_id":"0.0-4.0-1.52","subject_id":"613a541cf948d295c1df8752","study_id":"6197b3f67c2b5cd3b6d9596a","session_id":"6197b889b224f7a9d010d454","condition":"contingent","relevant_dimensions":["wings","legs"],"bee_group":{"antennae":"X","wings":"1","pattern":"X","legs":"F"},"bonus":1.0200000000000011},{"rt":1688.7999999998137,"stimulus":"bees-with-color/bee-B1DM.svg","response":0,"trial_type":"image-button-response","trial_index":113,"time_elapsed":1026698,"internal_node_id":"0.0-4.0-0.53","subject_id":"613a541cf948d295c1df8752","study_id":"6197b3f67c2b5cd3b6d9596a","session_id":"6197b889b224f7a9d010d454","condition":"contingent","relevant_dimensions":["wings","legs"],"bee_group":{"antennae":"X","wings":"1","pattern":"X","legs":"F"},"action":"harvest","summary":"good-harvest","bonus":1.0200000000000011},{"rt":774.6000000005588,"stimulus":"\n                    <p><b>Action: <em>harvest</em></b></p>\n                    <p>This is the bee that you just saw.</p>\n                    <img src=\"bees-with-color/bee-B1DM.svg\" width=\"200\">\n                    <p><span class=\"greenText\"><b>Successful harvest!</b></span><br>Your pay has increased by $0.02. Your bonus pay is now $0.68.</p>\n            ","response":0,"trial_type":"html-button-response","trial_index":114,"time_elapsed":1027474,"internal_node_id":"0.0-4.0-1.53","subject_id":"613a541cf948d295c1df8752","study_id":"6197b3f67c2b5cd3b6d9596a","session_id":"6197b889b224f7a9d010d454","condition":"contingent","relevant_dimensions":["wings","legs"],"bee_group":{"antennae":"X","wings":"1","pattern":"X","legs":"F"},"bonus":1.0200000000000011},{"rt":3417.399999999441,"stimulus":"bees-with-color/bee-A1SM.svg","response":0,"trial_type":"image-button-response","trial_index":115,"time_elapsed":1030892,"internal_node_id":"0.0-4.0-0.54","subject_id":"613a541cf948d295c1df8752","study_id":"6197b3f67c2b5cd3b6d9596a","session_id":"6197b889b224f7a9d010d454","condition":"contingent","relevant_dimensions":["wings","legs"],"bee_group":{"antennae":"X","wings":"1","pattern":"X","legs":"F"},"action":"harvest","summary":"good-harvest","bonus":1.0200000000000011},{"rt":506.5,"stimulus":"\n                    <p><b>Action: <em>harvest</em></b></p>\n                    <p>This is the bee that you just saw.</p>\n                    <img src=\"bees-with-color/bee-A1SM.svg\" width=\"200\">\n                    <p><span class=\"greenText\"><b>Successful harvest!</b></span><br>Your pay has increased by $0.02. Your bonus pay is now $0.70.</p>\n            ","response":0,"trial_type":"html-button-response","trial_index":116,"time_elapsed":1031400,"internal_node_id":"0.0-4.0-1.54","subject_id":"613a541cf948d295c1df8752","study_id":"6197b3f67c2b5cd3b6d9596a","session_id":"6197b889b224f7a9d010d454","condition":"contingent","relevant_dimensions":["wings","legs"],"bee_group":{"antennae":"X","wings":"1","pattern":"X","legs":"F"},"bonus":1.0200000000000011},{"rt":1290.5,"stimulus":"bees-with-color/bee-A1DF.svg","response":1,"trial_type":"image-button-response","trial_index":117,"time_elapsed":1032692,"internal_node_id":"0.0-4.0-0.55","subject_id":"613a541cf948d295c1df8752","study_id":"6197b3f67c2b5cd3b6d9596a","session_id":"6197b889b224f7a9d010d454","condition":"contingent","relevant_dimensions":["wings","legs"],"bee_group":{"antennae":"X","wings":"1","pattern":"X","legs":"F"},"action":"avoid","summary":"good-avoid","bonus":1.0200000000000011},{"rt":444.80000000074506,"stimulus":"\n                    <p><b>Action: <em>avoid</em></b></p>\n                    <p>This is the bee that you just saw.</p>\n                    <img src=\"bees-with-color/bee-A1DF.svg\" width=\"200\">\n                    <p><br>Your bonus pay is unchanged, and remains at $0.70.</p>\n            ","response":0,"trial_type":"html-button-response","trial_index":118,"time_elapsed":1033139,"internal_node_id":"0.0-4.0-1.55","subject_id":"613a541cf948d295c1df8752","study_id":"6197b3f67c2b5cd3b6d9596a","session_id":"6197b889b224f7a9d010d454","condition":"contingent","relevant_dimensions":["wings","legs"],"bee_group":{"antennae":"X","wings":"1","pattern":"X","legs":"F"},"bonus":1.0200000000000011},{"rt":875,"stimulus":"bees-with-color/bee-B1SF.svg","response":1,"trial_type":"image-button-response","trial_index":119,"time_elapsed":1034015,"internal_node_id":"0.0-4.0-0.56","subject_id":"613a541cf948d295c1df8752","study_id":"6197b3f67c2b5cd3b6d9596a","session_id":"6197b889b224f7a9d010d454","condition":"contingent","relevant_dimensions":["wings","legs"],"bee_group":{"antennae":"X","wings":"1","pattern":"X","legs":"F"},"action":"avoid","summary":"good-avoid","bonus":1.0200000000000011},{"rt":460,"stimulus":"\n                    <p><b>Action: <em>avoid</em></b></p>\n                    <p>This is the bee that you just saw.</p>\n                    <img src=\"bees-with-color/bee-B1SF.svg\" width=\"200\">\n                    <p><br>Your bonus pay is unchanged, and remains at $0.70.</p>\n            ","response":0,"trial_type":"html-button-response","trial_index":120,"time_elapsed":1034477,"internal_node_id":"0.0-4.0-1.56","subject_id":"613a541cf948d295c1df8752","study_id":"6197b3f67c2b5cd3b6d9596a","session_id":"6197b889b224f7a9d010d454","condition":"contingent","relevant_dimensions":["wings","legs"],"bee_group":{"antennae":"X","wings":"1","pattern":"X","legs":"F"},"bonus":1.0200000000000011},{"rt":710.7999999998137,"stimulus":"bees-with-color/bee-A1DM.svg","response":0,"trial_type":"image-button-response","trial_index":121,"time_elapsed":1035189,"internal_node_id":"0.0-4.0-0.57","subject_id":"613a541cf948d295c1df8752","study_id":"6197b3f67c2b5cd3b6d9596a","session_id":"6197b889b224f7a9d010d454","condition":"contingent","relevant_dimensions":["wings","legs"],"bee_group":{"antennae":"X","wings":"1","pattern":"X","legs":"F"},"action":"harvest","summary":"good-harvest","bonus":1.0200000000000011},{"rt":568.2999999998137,"stimulus":"\n                    <p><b>Action: <em>harvest</em></b></p>\n                    <p>This is the bee that you just saw.</p>\n                    <img src=\"bees-with-color/bee-A1DM.svg\" width=\"200\">\n                    <p><span class=\"greenText\"><b>Successful harvest!</b></span><br>Your pay has increased by $0.02. Your bonus pay is now $0.72.</p>\n            ","response":0,"trial_type":"html-button-response","trial_index":122,"time_elapsed":1035759,"internal_node_id":"0.0-4.0-1.57","subject_id":"613a541cf948d295c1df8752","study_id":"6197b3f67c2b5cd3b6d9596a","session_id":"6197b889b224f7a9d010d454","condition":"contingent","relevant_dimensions":["wings","legs"],"bee_group":{"antennae":"X","wings":"1","pattern":"X","legs":"F"},"bonus":1.0200000000000011},{"rt":719,"stimulus":"bees-with-color/bee-B2SF.svg","response":0,"trial_type":"image-button-response","trial_index":123,"time_elapsed":1036479,"internal_node_id":"0.0-4.0-0.58","subject_id":"613a541cf948d295c1df8752","study_id":"6197b3f67c2b5cd3b6d9596a","session_id":"6197b889b224f7a9d010d454","condition":"contingent","relevant_dimensions":["wings","legs"],"bee_group":{"antennae":"X","wings":"1","pattern":"X","legs":"F"},"action":"harvest","summary":"good-harvest","bonus":1.0200000000000011},{"rt":484.5,"stimulus":"\n                    <p><b>Action: <em>harvest</em></b></p>\n                    <p>This is the bee that you just saw.</p>\n                    <img src=\"bees-with-color/bee-B2SF.svg\" width=\"200\">\n                    <p><span class=\"greenText\"><b>Successful harvest!</b></span><br>Your pay has increased by $0.02. Your bonus pay is now $0.74.</p>\n            ","response":0,"trial_type":"html-button-response","trial_index":124,"time_elapsed":1036965,"internal_node_id":"0.0-4.0-1.58","subject_id":"613a541cf948d295c1df8752","study_id":"6197b3f67c2b5cd3b6d9596a","session_id":"6197b889b224f7a9d010d454","condition":"contingent","relevant_dimensions":["wings","legs"],"bee_group":{"antennae":"X","wings":"1","pattern":"X","legs":"F"},"bonus":1.0200000000000011},{"rt":694.7000000001863,"stimulus":"bees-with-color/bee-B2DM.svg","response":0,"trial_type":"image-button-response","trial_index":125,"time_elapsed":1037661,"internal_node_id":"0.0-4.0-0.59","subject_id":"613a541cf948d295c1df8752","study_id":"6197b3f67c2b5cd3b6d9596a","session_id":"6197b889b224f7a9d010d454","condition":"contingent","relevant_dimensions":["wings","legs"],"bee_group":{"antennae":"X","wings":"1","pattern":"X","legs":"F"},"action":"harvest","summary":"good-harvest","bonus":1.0200000000000011},{"rt":624.3999999994412,"stimulus":"\n                    <p><b>Action: <em>harvest</em></b></p>\n                    <p>This is the bee that you just saw.</p>\n                    <img src=\"bees-with-color/bee-B2DM.svg\" width=\"200\">\n                    <p><span class=\"greenText\"><b>Successful harvest!</b></span><br>Your pay has increased by $0.02. Your bonus pay is now $0.76.</p>\n            ","response":0,"trial_type":"html-button-response","trial_index":126,"time_elapsed":1038287,"internal_node_id":"0.0-4.0-1.59","subject_id":"613a541cf948d295c1df8752","study_id":"6197b3f67c2b5cd3b6d9596a","session_id":"6197b889b224f7a9d010d454","condition":"contingent","relevant_dimensions":["wings","legs"],"bee_group":{"antennae":"X","wings":"1","pattern":"X","legs":"F"},"bonus":1.0200000000000011},{"rt":1729.1000000005588,"stimulus":"bees-with-color/bee-B1DF.svg","response":0,"trial_type":"image-button-response","trial_index":127,"time_elapsed":1040018,"internal_node_id":"0.0-4.0-0.60","subject_id":"613a541cf948d295c1df8752","study_id":"6197b3f67c2b5cd3b6d9596a","session_id":"6197b889b224f7a9d010d454","condition":"contingent","relevant_dimensions":["wings","legs"],"bee_group":{"antennae":"X","wings":"1","pattern":"X","legs":"F"},"action":"harvest","summary":"bad-harvest","bonus":1.0200000000000011},{"rt":740.7999999998137,"stimulus":"\n                    <p><b>Action: <em>harvest</em></b></p>\n                    <p>This is the bee that you just saw.</p>\n                    <img src=\"bees-with-color/bee-B1DF.svg\" width=\"200\">\n                    <p><span class=\"redText\">Bad choice, the bee was angry.</span><br><b>You have been stung!</b><br>Your pay has been decreased by $0.10. Your bonus pay is now $0.66.</p>\n            ","response":0,"trial_type":"html-button-response","trial_index":128,"time_elapsed":1040760,"internal_node_id":"0.0-4.0-1.60","subject_id":"613a541cf948d295c1df8752","study_id":"6197b3f67c2b5cd3b6d9596a","session_id":"6197b889b224f7a9d010d454","condition":"contingent","relevant_dimensions":["wings","legs"],"bee_group":{"antennae":"X","wings":"1","pattern":"X","legs":"F"},"bonus":1.0200000000000011},{"rt":828.2999999998137,"stimulus":"bees-with-color/bee-B2SM.svg","response":0,"trial_type":"image-button-response","trial_index":129,"time_elapsed":1041589,"internal_node_id":"0.0-4.0-0.61","subject_id":"613a541cf948d295c1df8752","study_id":"6197b3f67c2b5cd3b6d9596a","session_id":"6197b889b224f7a9d010d454","condition":"contingent","relevant_dimensions":["wings","legs"],"bee_group":{"antennae":"X","wings":"1","pattern":"X","legs":"F"},"action":"harvest","summary":"good-harvest","bonus":1.0200000000000011},{"rt":458.70000000018626,"stimulus":"\n                    <p><b>Action: <em>harvest</em></b></p>\n                    <p>This is the bee that you just saw.</p>\n                    <img src=\"bees-with-color/bee-B2SM.svg\" width=\"200\">\n                    <p><span class=\"greenText\"><b>Successful harvest!</b></span><br>Your pay has increased by $0.02. Your bonus pay is now $0.68.</p>\n            ","response":0,"trial_type":"html-button-response","trial_index":130,"time_elapsed":1042050,"internal_node_id":"0.0-4.0-1.61","subject_id":"613a541cf948d295c1df8752","study_id":"6197b3f67c2b5cd3b6d9596a","session_id":"6197b889b224f7a9d010d454","condition":"contingent","relevant_dimensions":["wings","legs"],"bee_group":{"antennae":"X","wings":"1","pattern":"X","legs":"F"},"bonus":1.0200000000000011},{"rt":892.7999999998137,"stimulus":"bees-with-color/bee-B2DF.svg","response":1,"trial_type":"image-button-response","trial_index":131,"time_elapsed":1042944,"internal_node_id":"0.0-4.0-0.62","subject_id":"613a541cf948d295c1df8752","study_id":"6197b3f67c2b5cd3b6d9596a","session_id":"6197b889b224f7a9d010d454","condition":"contingent","relevant_dimensions":["wings","legs"],"bee_group":{"antennae":"X","wings":"1","pattern":"X","legs":"F"},"action":"avoid","summary":"bad-avoid","bonus":1.0200000000000011},{"rt":436.29999999981374,"stimulus":"\n                    <p><b>Action: <em>avoid</em></b></p>\n                    <p>This is the bee that you just saw.</p>\n                    <img src=\"bees-with-color/bee-B2DF.svg\" width=\"200\">\n                    <p><br>Your bonus pay is unchanged, and remains at $0.68.</p>\n            ","response":0,"trial_type":"html-button-response","trial_index":132,"time_elapsed":1043382,"internal_node_id":"0.0-4.0-1.62","subject_id":"613a541cf948d295c1df8752","study_id":"6197b3f67c2b5cd3b6d9596a","session_id":"6197b889b224f7a9d010d454","condition":"contingent","relevant_dimensions":["wings","legs"],"bee_group":{"antennae":"X","wings":"1","pattern":"X","legs":"F"},"bonus":1.0200000000000011},{"rt":1203.2999999998137,"stimulus":"bees-with-color/bee-A2SF.svg","response":0,"trial_type":"image-button-response","trial_index":133,"time_elapsed":1044586,"internal_node_id":"0.0-4.0-0.63","subject_id":"613a541cf948d295c1df8752","study_id":"6197b3f67c2b5cd3b6d9596a","session_id":"6197b889b224f7a9d010d454","condition":"contingent","relevant_dimensions":["wings","legs"],"bee_group":{"antennae":"X","wings":"1","pattern":"X","legs":"F"},"action":"harvest","summary":"good-harvest","bonus":1.0200000000000011},{"rt":506.5,"stimulus":"\n                    <p><b>Action: <em>harvest</em></b></p>\n                    <p>This is the bee that you just saw.</p>\n                    <img src=\"bees-with-color/bee-A2SF.svg\" width=\"200\">\n                    <p><span class=\"greenText\"><b>Successful harvest!</b></span><br>Your pay has increased by $0.02. Your bonus pay is now $0.70.</p>\n            ","response":0,"trial_type":"html-button-response","trial_index":134,"time_elapsed":1045094,"internal_node_id":"0.0-4.0-1.63","subject_id":"613a541cf948d295c1df8752","study_id":"6197b3f67c2b5cd3b6d9596a","session_id":"6197b889b224f7a9d010d454","condition":"contingent","relevant_dimensions":["wings","legs"],"bee_group":{"antennae":"X","wings":"1","pattern":"X","legs":"F"},"bonus":1.0200000000000011},{"rt":4601,"stimulus":"You have completed the first part of this experiment.<br><br>You will now begin a shorter second part, in which you will receive no feedback.<br>The same rules regarding bonus pay apply.<br><br>Press any key to begin.","response":"enter","trial_type":"html-keyboard-response","trial_index":135,"time_elapsed":1049696,"internal_node_id":"0.0-5.0","subject_id":"613a541cf948d295c1df8752","study_id":"6197b3f67c2b5cd3b6d9596a","session_id":"6197b889b224f7a9d010d454","condition":"contingent","relevant_dimensions":["wings","legs"],"bee_group":{"antennae":"X","wings":"1","pattern":"X","legs":"F"},"bonus":1.0200000000000011},{"rt":3005.199999999255,"stimulus":"bees-with-color/bee-B2SM.svg","response":0,"trial_type":"image-button-response","trial_index":136,"time_elapsed":1052709,"internal_node_id":"0.0-6.0-0.0","subject_id":"613a541cf948d295c1df8752","study_id":"6197b3f67c2b5cd3b6d9596a","session_id":"6197b889b224f7a9d010d454","condition":"contingent","relevant_dimensions":["wings","legs"],"bee_group":{"antennae":"X","wings":"1","pattern":"X","legs":"F"},"bonus":1.0200000000000011},{"rt":2354,"stimulus":"bees-with-color/bee-A1DM.svg","response":0,"trial_type":"image-button-response","trial_index":137,"time_elapsed":1055065,"internal_node_id":"0.0-6.0-0.1","subject_id":"613a541cf948d295c1df8752","study_id":"6197b3f67c2b5cd3b6d9596a","session_id":"6197b889b224f7a9d010d454","condition":"contingent","relevant_dimensions":["wings","legs"],"bee_group":{"antennae":"X","wings":"1","pattern":"X","legs":"F"},"bonus":1.0200000000000011},{"rt":1312.5999999996275,"stimulus":"bees-with-color/bee-A2SF.svg","response":0,"trial_type":"image-button-response","trial_index":138,"time_elapsed":1056380,"internal_node_id":"0.0-6.0-0.2","subject_id":"613a541cf948d295c1df8752","study_id":"6197b3f67c2b5cd3b6d9596a","session_id":"6197b889b224f7a9d010d454","condition":"contingent","relevant_dimensions":["wings","legs"],"bee_group":{"antennae":"X","wings":"1","pattern":"X","legs":"F"},"bonus":1.0200000000000011},{"rt":844.5,"stimulus":"bees-with-color/bee-A1SF.svg","response":1,"trial_type":"image-button-response","trial_index":139,"time_elapsed":1057226,"internal_node_id":"0.0-6.0-0.3","subject_id":"613a541cf948d295c1df8752","study_id":"6197b3f67c2b5cd3b6d9596a","session_id":"6197b889b224f7a9d010d454","condition":"contingent","relevant_dimensions":["wings","legs"],"bee_group":{"antennae":"X","wings":"1","pattern":"X","legs":"F"},"bonus":1.0200000000000011},{"rt":718.6000000005588,"stimulus":"bees-with-color/bee-B2SF.svg","response":0,"trial_type":"image-button-response","trial_index":140,"time_elapsed":1057946,"internal_node_id":"0.0-6.0-0.4","subject_id":"613a541cf948d295c1df8752","study_id":"6197b3f67c2b5cd3b6d9596a","session_id":"6197b889b224f7a9d010d454","condition":"contingent","relevant_dimensions":["wings","legs"],"bee_group":{"antennae":"X","wings":"1","pattern":"X","legs":"F"},"bonus":1.0200000000000011},{"rt":906.2000000001863,"stimulus":"bees-with-color/bee-B1SF.svg","response":1,"trial_type":"image-button-response","trial_index":141,"time_elapsed":1058854,"internal_node_id":"0.0-6.0-0.5","subject_id":"613a541cf948d295c1df8752","study_id":"6197b3f67c2b5cd3b6d9596a","session_id":"6197b889b224f7a9d010d454","condition":"contingent","relevant_dimensions":["wings","legs"],"bee_group":{"antennae":"X","wings":"1","pattern":"X","legs":"F"},"bonus":1.0200000000000011},{"rt":935.8999999994412,"stimulus":"bees-with-color/bee-A2DF.svg","response":0,"trial_type":"image-button-response","trial_index":142,"time_elapsed":1059792,"internal_node_id":"0.0-6.0-0.6","subject_id":"613a541cf948d295c1df8752","study_id":"6197b3f67c2b5cd3b6d9596a","session_id":"6197b889b224f7a9d010d454","condition":"contingent","relevant_dimensions":["wings","legs"],"bee_group":{"antennae":"X","wings":"1","pattern":"X","legs":"F"},"bonus":1.0200000000000011},{"rt":3284.600000000559,"stimulus":"bees-with-color/bee-B1DM.svg","response":1,"trial_type":"image-button-response","trial_index":143,"time_elapsed":1063078,"internal_node_id":"0.0-6.0-0.7","subject_id":"613a541cf948d295c1df8752","study_id":"6197b3f67c2b5cd3b6d9596a","session_id":"6197b889b224f7a9d010d454","condition":"contingent","relevant_dimensions":["wings","legs"],"bee_group":{"antennae":"X","wings":"1","pattern":"X","legs":"F"},"bonus":1.0200000000000011},{"rt":640.1999999992549,"stimulus":"bees-with-color/bee-B2DF.svg","response":0,"trial_type":"image-button-response","trial_index":144,"time_elapsed":1063721,"internal_node_id":"0.0-6.0-0.8","subject_id":"613a541cf948d295c1df8752","study_id":"6197b3f67c2b5cd3b6d9596a","session_id":"6197b889b224f7a9d010d454","condition":"contingent","relevant_dimensions":["wings","legs"],"bee_group":{"antennae":"X","wings":"1","pattern":"X","legs":"F"},"bonus":1.0200000000000011},{"rt":1994.0999999996275,"stimulus":"bees-with-color/bee-A2SM.svg","response":0,"trial_type":"image-button-response","trial_index":145,"time_elapsed":1065717,"internal_node_id":"0.0-6.0-0.9","subject_id":"613a541cf948d295c1df8752","study_id":"6197b3f67c2b5cd3b6d9596a","session_id":"6197b889b224f7a9d010d454","condition":"contingent","relevant_dimensions":["wings","legs"],"bee_group":{"antennae":"X","wings":"1","pattern":"X","legs":"F"},"bonus":1.0200000000000011},{"rt":2032.7000000001863,"stimulus":"bees-with-color/bee-A1DF.svg","response":1,"trial_type":"image-button-response","trial_index":146,"time_elapsed":1067751,"internal_node_id":"0.0-6.0-0.10","subject_id":"613a541cf948d295c1df8752","study_id":"6197b3f67c2b5cd3b6d9596a","session_id":"6197b889b224f7a9d010d454","condition":"contingent","relevant_dimensions":["wings","legs"],"bee_group":{"antennae":"X","wings":"1","pattern":"X","legs":"F"},"bonus":1.0200000000000011},{"rt":1266.6000000005588,"stimulus":"bees-with-color/bee-A1SM.svg","response":0,"trial_type":"image-button-response","trial_index":147,"time_elapsed":1069020,"internal_node_id":"0.0-6.0-0.11","subject_id":"613a541cf948d295c1df8752","study_id":"6197b3f67c2b5cd3b6d9596a","session_id":"6197b889b224f7a9d010d454","condition":"contingent","relevant_dimensions":["wings","legs"],"bee_group":{"antennae":"X","wings":"1","pattern":"X","legs":"F"},"bonus":1.0200000000000011},{"rt":1148.4000000003725,"stimulus":"bees-with-color/bee-B1DF.svg","response":1,"trial_type":"image-button-response","trial_index":148,"time_elapsed":1070170,"internal_node_id":"0.0-6.0-0.12","subject_id":"613a541cf948d295c1df8752","study_id":"6197b3f67c2b5cd3b6d9596a","session_id":"6197b889b224f7a9d010d454","condition":"contingent","relevant_dimensions":["wings","legs"],"bee_group":{"antennae":"X","wings":"1","pattern":"X","legs":"F"},"bonus":1.0200000000000011},{"rt":2626.5999999996275,"stimulus":"bees-with-color/bee-B1SM.svg","response":1,"trial_type":"image-button-response","trial_index":149,"time_elapsed":1072798,"internal_node_id":"0.0-6.0-0.13","subject_id":"613a541cf948d295c1df8752","study_id":"6197b3f67c2b5cd3b6d9596a","session_id":"6197b889b224f7a9d010d454","condition":"contingent","relevant_dimensions":["wings","legs"],"bee_group":{"antennae":"X","wings":"1","pattern":"X","legs":"F"},"bonus":1.0200000000000011},{"rt":578.0999999996275,"stimulus":"bees-with-color/bee-B2DM.svg","response":0,"trial_type":"image-button-response","trial_index":150,"time_elapsed":1073378,"internal_node_id":"0.0-6.0-0.14","subject_id":"613a541cf948d295c1df8752","study_id":"6197b3f67c2b5cd3b6d9596a","session_id":"6197b889b224f7a9d010d454","condition":"contingent","relevant_dimensions":["wings","legs"],"bee_group":{"antennae":"X","wings":"1","pattern":"X","legs":"F"},"bonus":1.0200000000000011},{"rt":726.0999999996275,"stimulus":"bees-with-color/bee-A2DM.svg","response":0,"trial_type":"image-button-response","trial_index":151,"time_elapsed":1074106,"internal_node_id":"0.0-6.0-0.15","subject_id":"613a541cf948d295c1df8752","study_id":"6197b3f67c2b5cd3b6d9596a","session_id":"6197b889b224f7a9d010d454","condition":"contingent","relevant_dimensions":["wings","legs"],"bee_group":{"antennae":"X","wings":"1","pattern":"X","legs":"F"},"bonus":1.0200000000000011},{"rt":1186,"stimulus":"bees-with-color/bee-A2SF.svg","response":0,"trial_type":"image-button-response","trial_index":152,"time_elapsed":1075294,"internal_node_id":"0.0-6.0-0.16","subject_id":"613a541cf948d295c1df8752","study_id":"6197b3f67c2b5cd3b6d9596a","session_id":"6197b889b224f7a9d010d454","condition":"contingent","relevant_dimensions":["wings","legs"],"bee_group":{"antennae":"X","wings":"1","pattern":"X","legs":"F"},"bonus":1.0200000000000011},{"rt":1196.3999999994412,"stimulus":"bees-with-color/bee-B1SF.svg","response":1,"trial_type":"image-button-response","trial_index":153,"time_elapsed":1076492,"internal_node_id":"0.0-6.0-0.17","subject_id":"613a541cf948d295c1df8752","study_id":"6197b3f67c2b5cd3b6d9596a","session_id":"6197b889b224f7a9d010d454","condition":"contingent","relevant_dimensions":["wings","legs"],"bee_group":{"antennae":"X","wings":"1","pattern":"X","legs":"F"},"bonus":1.0200000000000011},{"rt":686.6000000005588,"stimulus":"bees-with-color/bee-B2DF.svg","response":0,"trial_type":"image-button-response","trial_index":154,"time_elapsed":1077180,"internal_node_id":"0.0-6.0-0.18","subject_id":"613a541cf948d295c1df8752","study_id":"6197b3f67c2b5cd3b6d9596a","session_id":"6197b889b224f7a9d010d454","condition":"contingent","relevant_dimensions":["wings","legs"],"bee_group":{"antennae":"X","wings":"1","pattern":"X","legs":"F"},"bonus":1.0200000000000011},{"rt":938.2999999998137,"stimulus":"bees-with-color/bee-A1DM.svg","response":0,"trial_type":"image-button-response","trial_index":155,"time_elapsed":1078121,"internal_node_id":"0.0-6.0-0.19","subject_id":"613a541cf948d295c1df8752","study_id":"6197b3f67c2b5cd3b6d9596a","session_id":"6197b889b224f7a9d010d454","condition":"contingent","relevant_dimensions":["wings","legs"],"bee_group":{"antennae":"X","wings":"1","pattern":"X","legs":"F"},"bonus":1.0200000000000011},{"rt":2846.4000000003725,"stimulus":"bees-with-color/bee-B1SM.svg","response":1,"trial_type":"image-button-response","trial_index":156,"time_elapsed":1080969,"internal_node_id":"0.0-6.0-0.20","subject_id":"613a541cf948d295c1df8752","study_id":"6197b3f67c2b5cd3b6d9596a","session_id":"6197b889b224f7a9d010d454","condition":"contingent","relevant_dimensions":["wings","legs"],"bee_group":{"antennae":"X","wings":"1","pattern":"X","legs":"F"},"bonus":1.0200000000000011},{"rt":1977,"stimulus":"bees-with-color/bee-B2DM.svg","response":0,"trial_type":"image-button-response","trial_index":157,"time_elapsed":1082948,"internal_node_id":"0.0-6.0-0.21","subject_id":"613a541cf948d295c1df8752","study_id":"6197b3f67c2b5cd3b6d9596a","session_id":"6197b889b224f7a9d010d454","condition":"contingent","relevant_dimensions":["wings","legs"],"bee_group":{"antennae":"X","wings":"1","pattern":"X","legs":"F"},"bonus":1.0200000000000011},{"rt":982.6000000005588,"stimulus":"bees-with-color/bee-B2SF.svg","response":0,"trial_type":"image-button-response","trial_index":158,"time_elapsed":1083933,"internal_node_id":"0.0-6.0-0.22","subject_id":"613a541cf948d295c1df8752","study_id":"6197b3f67c2b5cd3b6d9596a","session_id":"6197b889b224f7a9d010d454","condition":"contingent","relevant_dimensions":["wings","legs"],"bee_group":{"antennae":"X","wings":"1","pattern":"X","legs":"F"},"bonus":1.0200000000000011},{"rt":1376.7000000001863,"stimulus":"bees-with-color/bee-A1SF.svg","response":1,"trial_type":"image-button-response","trial_index":159,"time_elapsed":1085312,"internal_node_id":"0.0-6.0-0.23","subject_id":"613a541cf948d295c1df8752","study_id":"6197b3f67c2b5cd3b6d9596a","session_id":"6197b889b224f7a9d010d454","condition":"contingent","relevant_dimensions":["wings","legs"],"bee_group":{"antennae":"X","wings":"1","pattern":"X","legs":"F"},"bonus":1.0200000000000011},{"rt":584.3999999994412,"stimulus":"bees-with-color/bee-A2DF.svg","response":0,"trial_type":"image-button-response","trial_index":160,"time_elapsed":1085898,"internal_node_id":"0.0-6.0-0.24","subject_id":"613a541cf948d295c1df8752","study_id":"6197b3f67c2b5cd3b6d9596a","session_id":"6197b889b224f7a9d010d454","condition":"contingent","relevant_dimensions":["wings","legs"],"bee_group":{"antennae":"X","wings":"1","pattern":"X","legs":"F"},"bonus":1.0200000000000011},{"rt":970.6000000005588,"stimulus":"bees-with-color/bee-A2SM.svg","response":0,"trial_type":"image-button-response","trial_index":161,"time_elapsed":1086870,"internal_node_id":"0.0-6.0-0.25","subject_id":"613a541cf948d295c1df8752","study_id":"6197b3f67c2b5cd3b6d9596a","session_id":"6197b889b224f7a9d010d454","condition":"contingent","relevant_dimensions":["wings","legs"],"bee_group":{"antennae":"X","wings":"1","pattern":"X","legs":"F"},"bonus":1.0200000000000011},{"rt":1704.3999999994412,"stimulus":"bees-with-color/bee-B1DM.svg","response":0,"trial_type":"image-button-response","trial_index":162,"time_elapsed":1088576,"internal_node_id":"0.0-6.0-0.26","subject_id":"613a541cf948d295c1df875