[{"success":true,"trial_type":"fullscreen","trial_index":0,"time_elapsed":2620,"internal_node_id":"0.0-0.0","subject_id":"60ca1c436511b9fc8ab35615","study_id":"6197b3f67c2b5cd3b6d9596a","session_id":"619be31d8809d17b621e9a0d","condition":"contingent","relevant_dimensions":["wings","legs"],"bee_group":{"antennae":"X","wings":"1","pattern":"X","legs":"M"},"bonus":0.1},{"success":true,"timeout":false,"failed_images":[],"failed_audio":[],"failed_video":[],"trial_type":"preload","trial_index":1,"time_elapsed":6005,"internal_node_id":"0.0-1.0","subject_id":"60ca1c436511b9fc8ab35615","study_id":"6197b3f67c2b5cd3b6d9596a","session_id":"619be31d8809d17b621e9a0d","condition":"contingent","relevant_dimensions":["wings","legs"],"bee_group":{"antennae":"X","wings":"1","pattern":"X","legs":"M"},"bonus":0.1},{"rt":1540.3999999761581,"stimulus":"Welcome! Press any key to begin.","response":" ","trial_type":"html-keyboard-response","trial_index":2,"time_elapsed":7546,"internal_node_id":"0.0-2.0","subject_id":"60ca1c436511b9fc8ab35615","study_id":"6197b3f67c2b5cd3b6d9596a","session_id":"619be31d8809d17b621e9a0d","condition":"contingent","relevant_dimensions":["wings","legs"],"bee_group":{"antennae":"X","wings":"1","pattern":"X","legs":"M"},"bonus":0.1},{"view_history":[{"page_index":0,"viewing_time":2915.899999976158},{"page_index":1,"viewing_time":9632},{"page_index":2,"viewing_time":9919.899999976158},{"page_index":3,"viewing_time":11080},{"page_index":4,"viewing_time":4360},{"page_index":5,"viewing_time":5272.200000047684},{"page_index":6,"viewing_time":7368.199999928474},{"page_index":7,"viewing_time":3383.5},{"page_index":8,"viewing_time":5936.100000023842},{"page_index":9,"viewing_time":2984},{"page_index":10,"viewing_time":3432},{"page_index":11,"viewing_time":7456},{"page_index":12,"viewing_time":6135.899999976158},{"page_index":13,"viewing_time":968.1000000238419},{"page_index":14,"viewing_time":2200}],"rt":83044.10000002384,"trial_type":"instructions","trial_index":3,"time_elapsed":90591,"internal_node_id":"0.0-3.0-0.0","subject_id":"60ca1c436511b9fc8ab35615","study_id":"6197b3f67c2b5cd3b6d9596a","session_id":"619be31d8809d17b621e9a0d","condition":"contingent","relevant_dimensions":["wings","legs"],"bee_group":{"antennae":"X","wings":"1","pattern":"X","legs":"M"},"bonus":0.1},{"rt":13165.800000071526,"response":{"Q0":["Two or six legs","Stripes or spots on body","Stinger or no stinger","Single or double wings","Antennae or no antennae"]},"question_order":[0],"trial_type":"survey-multi-select","trial_index":4,"time_elapsed":103760,"internal_node_id":"0.0-3.0-1.0","subject_id":"60ca1c436511b9fc8ab35615","study_id":"6197b3f67c2b5cd3b6d9596a","session_id":"619be31d8809d17b621e9a0d","condition":"contingent","relevant_dimensions":["wings","legs"],"bee_group":{"antennae":"X","wings":"1","pattern":"X","legs":"M"},"correct":false,"bonus":0.1},{"rt":19507,"response":{"Q1":"No.","Q2":"Based on the four features of the bee.","Q3":"You do not learn if it was friendly or dangerous, and do not alter your bonus."},"question_order":[0,1,2],"trial_type":"survey-multi-choice","trial_index":5,"time_elapsed":123272,"internal_node_id":"0.0-3.0-2.0","subject_id":"60ca1c436511b9fc8ab35615","study_id":"6197b3f67c2b5cd3b6d9596a","session_id":"619be31d8809d17b621e9a0d","condition":"contingent","relevant_dimensions":["wings","legs"],"bee_group":{"antennae":"X","wings":"1","pattern":"X","legs":"M"},"correct":true,"bonus":0.1},{"rt":2875.2999999523163,"stimulus":"<p>You did not answer all comprehension questions correctly.<br>Press <b>continue</b> to review the instructions again.</p>","response":0,"trial_type":"html-button-response","trial_index":6,"time_elapsed":126151,"internal_node_id":"0.0-3.0-3.0","subject_id":"60ca1c436511b9fc8ab35615","study_id":"6197b3f67c2b5cd3b6d9596a","session_id":"619be31d8809d17b621e9a0d","condition":"contingent","relevant_dimensions":["wings","legs"],"bee_group":{"antennae":"X","wings":"1","pattern":"X","legs":"M"},"bonus":0.1},{"view_history":[{"page_index":0,"viewing_time":1198.3999999761581},{"page_index":1,"viewing_time":5344.100000023842},{"page_index":2,"viewing_time":5560},{"page_index":3,"viewing_time":11055.899999976158},{"page_index":4,"viewing_time":4088},{"page_index":5,"viewing_time":4479.900000095367},{"page_index":6,"viewing_time":6079.899999976158},{"page_index":7,"viewing_time":1576.1000000238419},{"page_index":8,"viewing_time":1360.2999999523163},{"page_index":9,"viewing_time":2439.7000000476837},{"page_index":10,"viewing_time":1176.0999999046326},{"page_index":11,"viewing_time":6360},{"page_index":12,"viewing_time":1471.9000000953674},{"page_index":13,"viewing_time":880.0999999046326},{"page_index":14,"viewing_time":448.10000002384186}],"rt":53518.89999997616,"trial_type":"instructions","trial_index":7,"time_elapsed":179671,"internal_node_id":"0.0-3.0-4.0-0.0","subject_id":"60ca1c436511b9fc8ab35615","study_id":"6197b3f67c2b5cd3b6d9596a","session_id":"619be31d8809d17b621e9a0d","condition":"contingent","relevant_dimensions":["wings","legs"],"bee_group":{"antennae":"X","wings":"1","pattern":"X","legs":"M"},"bonus":0.1},{"rt":5589.800000071526,"response":{"Q0":["Two or six legs","Stripes or spots on body","Single or double wings","Antennae or no antennae"]},"question_order":[0],"trial_type":"survey-multi-select","trial_index":8,"time_elapsed":185263,"internal_node_id":"0.0-3.0-4.0-1.0","subject_id":"60ca1c436511b9fc8ab35615","study_id":"6197b3f67c2b5cd3b6d9596a","session_id":"619be31d8809d17b621e9a0d","condition":"contingent","relevant_dimensions":["wings","legs"],"bee_group":{"antennae":"X","wings":"1","pattern":"X","legs":"M"},"correct":true,"bonus":0.1},{"rt":8931.799999952316,"response":{"Q1":"No.","Q2":"Based on the four features of the bee.","Q3":"You do not learn if it was friendly or dangerous, and do not alter your bonus."},"question_order":[0,1,2],"trial_type":"survey-multi-choice","trial_index":9,"time_elapsed":194199,"internal_node_id":"0.0-3.0-4.0-2.0","subject_id":"60ca1c436511b9fc8ab35615","study_id":"6197b3f67c2b5cd3b6d9596a","session_id":"619be31d8809d17b621e9a0d","condition":"contingent","relevant_dimensions":["wings","legs"],"bee_group":{"antennae":"X","wings":"1","pattern":"X","legs":"M"},"correct":true,"bonus":0.1},{"rt":2228.5,"stimulus":"<p>Congrats, you got everything right<br>When you're ready, click the button below to continue to the experiment.</p>","response":0,"trial_type":"html-button-response","trial_index":10,"time_elapsed":196431,"internal_node_id":"0.0-3.0-4.0-3.0","subject_id":"60ca1c436511b9fc8ab35615","study_id":"6197b3f67c2b5cd3b6d9596a","session_id":"619be31d8809d17b621e9a0d","condition":"contingent","relevant_dimensions":["wings","legs"],"bee_group":{"antennae":"X","wings":"1","pattern":"X","legs":"M"},"bonus":0.1},{"rt":1981.5,"stimulus":"bees-with-color/bee-B1DM.svg","response":0,"trial_type":"image-button-response","trial_index":11,"time_elapsed":198415,"internal_node_id":"0.0-4.0-0.0","subject_id":"60ca1c436511b9fc8ab35615","study_id":"6197b3f67c2b5cd3b6d9596a","session_id":"619be31d8809d17b621e9a0d","condition":"contingent","relevant_dimensions":["wings","legs"],"bee_group":{"antennae":"X","wings":"1","pattern":"X","legs":"M"},"action":"harvest","summary":"bad-harvest","bonus":0.1},{"rt":6324.600000023842,"stimulus":"\n                    <p><b>Action: <em>harvest</em></b></p>\n                    <p>This is the bee that you just saw.</p>\n                    <img src=\"bees-with-color/bee-B1DM.svg\" width=\"200\">\n                    <p><span class=\"redText\">Bad choice, the bee was angry.</span><br><b>You have been stung!</b><br>Your pay has been decreased by $0.10. Your bonus pay is now $0.44.</p>\n            ","response":0,"trial_type":"html-button-response","trial_index":12,"time_elapsed":204743,"internal_node_id":"0.0-4.0-1.0","subject_id":"60ca1c436511b9fc8ab35615","study_id":"6197b3f67c2b5cd3b6d9596a","session_id":"619be31d8809d17b621e9a0d","condition":"contingent","relevant_dimensions":["wings","legs"],"bee_group":{"antennae":"X","wings":"1","pattern":"X","legs":"M"},"bonus":0.1},{"rt":2117.5,"stimulus":"bees-with-color/bee-A1DM.svg","response":0,"trial_type":"image-button-response","trial_index":13,"time_elapsed":206863,"internal_node_id":"0.0-4.0-0.1","subject_id":"60ca1c436511b9fc8ab35615","study_id":"6197b3f67c2b5cd3b6d9596a","session_id":"619be31d8809d17b621e9a0d","condition":"contingent","relevant_dimensions":["wings","legs"],"bee_group":{"antennae":"X","wings":"1","pattern":"X","legs":"M"},"action":"harvest","summary":"bad-harvest","bonus":0.1},{"rt":1334.1000000238419,"stimulus":"\n                    <p><b>Action: <em>harvest</em></b></p>\n                    <p>This is the bee that you just saw.</p>\n                    <img src=\"bees-with-color/bee-A1DM.svg\" width=\"200\">\n                    <p><span class=\"redText\">Bad choice, the bee was angry.</span><br><b>You have been stung!</b><br>Your pay has been decreased by $0.10. Your bonus pay is now $0.34.</p>\n            ","response":0,"trial_type":"html-button-response","trial_index":14,"time_elapsed":208199,"internal_node_id":"0.0-4.0-1.1","subject_id":"60ca1c436511b9fc8ab35615","study_id":"6197b3f67c2b5cd3b6d9596a","session_id":"619be31d8809d17b621e9a0d","condition":"contingent","relevant_dimensions":["wings","legs"],"bee_group":{"antennae":"X","wings":"1","pattern":"X","legs":"M"},"bonus":0.1},{"rt":1246.5999999046326,"stimulus":"bees-with-color/bee-A2DM.svg","response":0,"trial_type":"image-button-response","trial_index":15,"time_elapsed":209447,"internal_node_id":"0.0-4.0-0.2","subject_id":"60ca1c436511b9fc8ab35615","study_id":"6197b3f67c2b5cd3b6d9596a","session_id":"619be31d8809d17b621e9a0d","condition":"contingent","relevant_dimensions":["wings","legs"],"bee_group":{"antennae":"X","wings":"1","pattern":"X","legs":"M"},"action":"harvest","summary":"good-harvest","bonus":0.1},{"rt":3430.1999999284744,"stimulus":"\n                    <p><b>Action: <em>harvest</em></b></p>\n                    <p>This is the bee that you just saw.</p>\n                    <img src=\"bees-with-color/bee-A2DM.svg\" width=\"200\">\n                    <p><span class=\"greenText\"><b>Successful harvest!</b></span><br>Your pay has increased by $0.02. Your bonus pay is now $0.36.</p>\n            ","response":0,"trial_type":"html-button-response","trial_index":16,"time_elapsed":212879,"internal_node_id":"0.0-4.0-1.2","subject_id":"60ca1c436511b9fc8ab35615","study_id":"6197b3f67c2b5cd3b6d9596a","session_id":"619be31d8809d17b621e9a0d","condition":"contingent","relevant_dimensions":["wings","legs"],"bee_group":{"antennae":"X","wings":"1","pattern":"X","legs":"M"},"bonus":0.1},{"rt":1502.2000000476837,"stimulus":"bees-with-color/bee-B2SM.svg","response":1,"trial_type":"image-button-response","trial_index":17,"time_elapsed":214383,"internal_node_id":"0.0-4.0-0.3","subject_id":"60ca1c436511b9fc8ab35615","study_id":"6197b3f67c2b5cd3b6d9596a","session_id":"619be31d8809d17b621e9a0d","condition":"contingent","relevant_dimensions":["wings","legs"],"bee_group":{"antennae":"X","wings":"1","pattern":"X","legs":"M"},"action":"avoid","summary":"bad-avoid","bonus":0.1},{"rt":3678.2000000476837,"stimulus":"\n                    <p><b>Action: <em>avoid</em></b></p>\n                    <p>This is the bee that you just saw.</p>\n                    <img src=\"bees-with-color/bee-B2SM.svg\" width=\"200\">\n                    <p><br>Your bonus pay is unchanged, and remains at $0.36.</p>\n            ","response":0,"trial_type":"html-button-response","trial_index":18,"time_elapsed":218063,"internal_node_id":"0.0-4.0-1.3","subject_id":"60ca1c436511b9fc8ab35615","study_id":"6197b3f67c2b5cd3b6d9596a","session_id":"619be31d8809d17b621e9a0d","condition":"contingent","relevant_dimensions":["wings","legs"],"bee_group":{"antennae":"X","wings":"1","pattern":"X","legs":"M"},"bonus":0.1},{"rt":1389.9000000953674,"stimulus":"bees-with-color/bee-A2SF.svg","response":0,"trial_type":"image-button-response","trial_index":19,"time_elapsed":219455,"internal_node_id":"0.0-4.0-0.4","subject_id":"60ca1c436511b9fc8ab35615","study_id":"6197b3f67c2b5cd3b6d9596a","session_id":"619be31d8809d17b621e9a0d","condition":"contingent","relevant_dimensions":["wings","legs"],"bee_group":{"antennae":"X","wings":"1","pattern":"X","legs":"M"},"action":"harvest","summary":"good-harvest","bonus":0.1},{"rt":1205.8999999761581,"stimulus":"\n                    <p><b>Action: <em>harvest</em></b></p>\n                    <p>This is the bee that you just saw.</p>\n                    <img src=\"bees-with-color/bee-A2SF.svg\" width=\"200\">\n                    <p><span class=\"greenText\"><b>Successful harvest!</b></span><br>Your pay has increased by $0.02. Your bonus pay is now $0.38.</p>\n            ","response":0,"trial_type":"html-button-response","trial_index":20,"time_elapsed":220663,"internal_node_id":"0.0-4.0-1.4","subject_id":"60ca1c436511b9fc8ab35615","study_id":"6197b3f67c2b5cd3b6d9596a","session_id":"619be31d8809d17b621e9a0d","condition":"contingent","relevant_dimensions":["wings","legs"],"bee_group":{"antennae":"X","wings":"1","pattern":"X","legs":"M"},"bonus":0.1},{"rt":917.8000000715256,"stimulus":"bees-with-color/bee-B2SF.svg","response":0,"trial_type":"image-button-response","trial_index":21,"time_elapsed":221583,"internal_node_id":"0.0-4.0-0.5","subject_id":"60ca1c436511b9fc8ab35615","study_id":"6197b3f67c2b5cd3b6d9596a","session_id":"619be31d8809d17b621e9a0d","condition":"contingent","relevant_dimensions":["wings","legs"],"bee_group":{"antennae":"X","wings":"1","pattern":"X","legs":"M"},"action":"harvest","summary":"good-harvest","bonus":0.1},{"rt":814.3999999761581,"stimulus":"\n                    <p><b>Action: <em>harvest</em></b></p>\n                    <p>This is the bee that you just saw.</p>\n                    <img src=\"bees-with-color/bee-B2SF.svg\" width=\"200\">\n                    <p><span class=\"greenText\"><b>Successful harvest!</b></span><br>Your pay has increased by $0.02. Your bonus pay is now $0.40.</p>\n            ","response":0,"trial_type":"html-button-response","trial_index":22,"time_elapsed":222399,"internal_node_id":"0.0-4.0-1.5","subject_id":"60ca1c436511b9fc8ab35615","study_id":"6197b3f67c2b5cd3b6d9596a","session_id":"619be31d8809d17b621e9a0d","condition":"contingent","relevant_dimensions":["wings","legs"],"bee_group":{"antennae":"X","wings":"1","pattern":"X","legs":"M"},"bonus":0.1},{"rt":1630.2000000476837,"stimulus":"bees-with-color/bee-A2DF.svg","response":0,"trial_type":"image-button-response","trial_index":23,"time_elapsed":224031,"internal_node_id":"0.0-4.0-0.6","subject_id":"60ca1c436511b9fc8ab35615","study_id":"6197b3f67c2b5cd3b6d9596a","session_id":"619be31d8809d17b621e9a0d","condition":"contingent","relevant_dimensions":["wings","legs"],"bee_group":{"antennae":"X","wings":"1","pattern":"X","legs":"M"},"action":"harvest","summary":"good-harvest","bonus":0.1},{"rt":814.0999999046326,"stimulus":"\n                    <p><b>Action: <em>harvest</em></b></p>\n                    <p>This is the bee that you just saw.</p>\n                    <img src=\"bees-with-color/bee-A2DF.svg\" width=\"200\">\n                    <p><span class=\"greenText\"><b>Successful harvest!</b></span><br>Your pay has increased by $0.02. Your bonus pay is now $0.42.</p>\n            ","response":0,"trial_type":"html-button-response","trial_index":24,"time_elapsed":224847,"internal_node_id":"0.0-4.0-1.6","subject_id":"60ca1c436511b9fc8ab35615","study_id":"6197b3f67c2b5cd3b6d9596a","session_id":"619be31d8809d17b621e9a0d","condition":"contingent","relevant_dimensions":["wings","legs"],"bee_group":{"antennae":"X","wings":"1","pattern":"X","legs":"M"},"bonus":0.1},{"rt":1150.1999999284744,"stimulus":"bees-with-color/bee-B1SF.svg","response":1,"trial_type":"image-button-response","trial_index":25,"time_elapsed":225999,"internal_node_id":"0.0-4.0-0.7","subject_id":"60ca1c436511b9fc8ab35615","study_id":"6197b3f67c2b5cd3b6d9596a","session_id":"619be31d8809d17b621e9a0d","condition":"contingent","relevant_dimensions":["wings","legs"],"bee_group":{"antennae":"X","wings":"1","pattern":"X","legs":"M"},"action":"avoid","summary":"bad-avoid","bonus":0.1},{"rt":614.4000000953674,"stimulus":"\n                    <p><b>Action: <em>avoid</em></b></p>\n                    <p>This is the bee that you just saw.</p>\n                    <img src=\"bees-with-color/bee-B1SF.svg\" width=\"200\">\n                    <p><br>Your bonus pay is unchanged, and remains at $0.42.</p>\n            ","response":0,"trial_type":"html-button-response","trial_index":26,"time_elapsed":226615,"internal_node_id":"0.0-4.0-1.7","subject_id":"60ca1c436511b9fc8ab35615","study_id":"6197b3f67c2b5cd3b6d9596a","session_id":"619be31d8809d17b621e9a0d","condition":"contingent","relevant_dimensions":["wings","legs"],"bee_group":{"antennae":"X","wings":"1","pattern":"X","legs":"M"},"bonus":0.1},{"rt":1206.5,"stimulus":"bees-with-color/bee-B1SM.svg","response":0,"trial_type":"image-button-response","trial_index":27,"time_elapsed":227823,"internal_node_id":"0.0-4.0-0.8","subject_id":"60ca1c436511b9fc8ab35615","study_id":"6197b3f67c2b5cd3b6d9596a","session_id":"619be31d8809d17b621e9a0d","condition":"contingent","relevant_dimensions":["wings","legs"],"bee_group":{"antennae":"X","wings":"1","pattern":"X","legs":"M"},"action":"harvest","summary":"bad-harvest","bonus":0.1},{"rt":806.5,"stimulus":"\n                    <p><b>Action: <em>harvest</em></b></p>\n                    <p>This is the bee that you just saw.</p>\n                    <img src=\"bees-with-color/bee-B1SM.svg\" width=\"200\">\n                    <p><span class=\"redText\">Bad choice, the bee was angry.</span><br><b>You have been stung!</b><br>Your pay has been decreased by $0.10. Your bonus pay is now $0.32.</p>\n            ","response":0,"trial_type":"html-button-response","trial_index":28,"time_elapsed":228631,"internal_node_id":"0.0-4.0-1.8","subject_id":"60ca1c436511b9fc8ab35615","study_id":"6197b3f67c2b5cd3b6d9596a","session_id":"619be31d8809d17b621e9a0d","condition":"contingent","relevant_dimensions":["wings","legs"],"bee_group":{"antennae":"X","wings":"1","pattern":"X","legs":"M"},"bonus":0.1},{"rt":870.9000000953674,"stimulus":"bees-with-color/bee-A2SM.svg","response":0,"trial_type":"image-button-response","trial_index":29,"time_elapsed":229503,"internal_node_id":"0.0-4.0-0.9","subject_id":"60ca1c436511b9fc8ab35615","study_id":"6197b3f67c2b5cd3b6d9596a","session_id":"619be31d8809d17b621e9a0d","condition":"contingent","relevant_dimensions":["wings","legs"],"bee_group":{"antennae":"X","wings":"1","pattern":"X","legs":"M"},"action":"harvest","summary":"good-harvest","bonus":0.1},{"rt":766.6000000238419,"stimulus":"\n                    <p><b>Action: <em>harvest</em></b></p>\n                    <p>This is the bee that you just saw.</p>\n                    <img src=\"bees-with-color/bee-A2SM.svg\" width=\"200\">\n                    <p><span class=\"greenText\"><b>Successful harvest!</b></span><br>Your pay has increased by $0.02. Your bonus pay is now $0.34.</p>\n            ","response":0,"trial_type":"html-button-response","trial_index":30,"time_elapsed":230271,"internal_node_id":"0.0-4.0-1.9","subject_id":"60ca1c436511b9fc8ab35615","study_id":"6197b3f67c2b5cd3b6d9596a","session_id":"619be31d8809d17b621e9a0d","condition":"contingent","relevant_dimensions":["wings","legs"],"bee_group":{"antennae":"X","wings":"1","pattern":"X","legs":"M"},"bonus":0.1},{"rt":1870.6000000238419,"stimulus":"bees-with-color/bee-B2DF.svg","response":0,"trial_type":"image-button-response","trial_index":31,"time_elapsed":232143,"internal_node_id":"0.0-4.0-0.10","subject_id":"60ca1c436511b9fc8ab35615","study_id":"6197b3f67c2b5cd3b6d9596a","session_id":"619be31d8809d17b621e9a0d","condition":"contingent","relevant_dimensions":["wings","legs"],"bee_group":{"antennae":"X","wings":"1","pattern":"X","legs":"M"},"action":"harvest","summary":"good-harvest","bonus":0.1},{"rt":702.5999999046326,"stimulus":"\n                    <p><b>Action: <em>harvest</em></b></p>\n                    <p>This is the bee that you just saw.</p>\n                    <img src=\"bees-with-color/bee-B2DF.svg\" width=\"200\">\n                    <p><span class=\"greenText\"><b>Successful harvest!</b></span><br>Your pay has increased by $0.02. Your bonus pay is now $0.36.</p>\n            ","response":0,"trial_type":"html-button-response","trial_index":32,"time_elapsed":232847,"internal_node_id":"0.0-4.0-1.10","subject_id":"60ca1c436511b9fc8ab35615","study_id":"6197b3f67c2b5cd3b6d9596a","session_id":"619be31d8809d17b621e9a0d","condition":"contingent","relevant_dimensions":["wings","legs"],"bee_group":{"antennae":"X","wings":"1","pattern":"X","legs":"M"},"bonus":0.1},{"rt":1174.4000000953674,"stimulus":"bees-with-color/bee-A1SM.svg","response":0,"trial_type":"image-button-response","trial_index":33,"time_elapsed":234023,"internal_node_id":"0.0-4.0-0.11","subject_id":"60ca1c436511b9fc8ab35615","study_id":"6197b3f67c2b5cd3b6d9596a","session_id":"619be31d8809d17b621e9a0d","condition":"contingent","relevant_dimensions":["wings","legs"],"bee_group":{"antennae":"X","wings":"1","pattern":"X","legs":"M"},"action":"harvest","summary":"bad-harvest","bonus":0.1},{"rt":814.6000000238419,"stimulus":"\n                    <p><b>Action: <em>harvest</em></b></p>\n                    <p>This is the bee that you just saw.</p>\n                    <img src=\"bees-with-color/bee-A1SM.svg\" width=\"200\">\n                    <p><span class=\"redText\">Bad choice, the bee was angry.</span><br><b>You have been stung!</b><br>Your pay has been decreased by $0.10. Your bonus pay is now $0.26.</p>\n            ","response":0,"trial_type":"html-button-response","trial_index":34,"time_elapsed":234839,"internal_node_id":"0.0-4.0-1.11","subject_id":"60ca1c436511b9fc8ab35615","study_id":"6197b3f67c2b5cd3b6d9596a","session_id":"619be31d8809d17b621e9a0d","condition":"contingent","relevant_dimensions":["wings","legs"],"bee_group":{"antennae":"X","wings":"1","pattern":"X","legs":"M"},"bonus":0.1},{"rt":2062.7000000476837,"stimulus":"bees-with-color/bee-A1SF.svg","response":0,"trial_type":"image-button-response","trial_index":35,"time_elapsed":236903,"internal_node_id":"0.0-4.0-0.12","subject_id":"60ca1c436511b9fc8ab35615","study_id":"6197b3f67c2b5cd3b6d9596a","session_id":"619be31d8809d17b621e9a0d","condition":"contingent","relevant_dimensions":["wings","legs"],"bee_group":{"antennae":"X","wings":"1","pattern":"X","legs":"M"},"action":"harvest","summary":"good-harvest","bonus":0.1},{"rt":694.6000000238419,"stimulus":"\n                    <p><b>Action: <em>harvest</em></b></p>\n                    <p>This is the bee that you just saw.</p>\n                    <img src=\"bees-with-color/bee-A1SF.svg\" width=\"200\">\n                    <p><span class=\"greenText\"><b>Successful harvest!</b></span><br>Your pay has increased by $0.02. Your bonus pay is now $0.28.</p>\n            ","response":0,"trial_type":"html-button-response","trial_index":36,"time_elapsed":237599,"internal_node_id":"0.0-4.0-1.12","subject_id":"60ca1c436511b9fc8ab35615","study_id":"6197b3f67c2b5cd3b6d9596a","session_id":"619be31d8809d17b621e9a0d","condition":"contingent","relevant_dimensions":["wings","legs"],"bee_group":{"antennae":"X","wings":"1","pattern":"X","legs":"M"},"bonus":0.1},{"rt":1174.6999999284744,"stimulus":"bees-with-color/bee-B2DM.svg","response":0,"trial_type":"image-button-response","trial_index":37,"time_elapsed":238775,"internal_node_id":"0.0-4.0-0.13","subject_id":"60ca1c436511b9fc8ab35615","study_id":"6197b3f67c2b5cd3b6d9596a","session_id":"619be31d8809d17b621e9a0d","condition":"contingent","relevant_dimensions":["wings","legs"],"bee_group":{"antennae":"X","wings":"1","pattern":"X","legs":"M"},"action":"harvest","summary":"good-harvest","bonus":0.1},{"rt":686.8000000715256,"stimulus":"\n                    <p><b>Action: <em>harvest</em></b></p>\n                    <p>This is the bee that you just saw.</p>\n                    <img src=\"bees-with-color/bee-B2DM.svg\" width=\"200\">\n                    <p><span class=\"greenText\"><b>Successful harvest!</b></span><br>Your pay has increased by $0.02. Your bonus pay is now $0.30.</p>\n            ","response":0,"trial_type":"html-button-response","trial_index":38,"time_elapsed":239463,"internal_node_id":"0.0-4.0-1.13","subject_id":"60ca1c436511b9fc8ab35615","study_id":"6197b3f67c2b5cd3b6d9596a","session_id":"619be31d8809d17b621e9a0d","condition":"contingent","relevant_dimensions":["wings","legs"],"bee_group":{"antennae":"X","wings":"1","pattern":"X","legs":"M"},"bonus":0.1},{"rt":798.2999999523163,"stimulus":"bees-with-color/bee-A1DF.svg","response":1,"trial_type":"image-button-response","trial_index":39,"time_elapsed":240263,"internal_node_id":"0.0-4.0-0.14","subject_id":"60ca1c436511b9fc8ab35615","study_id":"6197b3f67c2b5cd3b6d9596a","session_id":"619be31d8809d17b621e9a0d","condition":"contingent","relevant_dimensions":["wings","legs"],"bee_group":{"antennae":"X","wings":"1","pattern":"X","legs":"M"},"action":"avoid","summary":"bad-avoid","bonus":0.1},{"rt":574.6999999284744,"stimulus":"\n                    <p><b>Action: <em>avoid</em></b></p>\n                    <p>This is the bee that you just saw.</p>\n                    <img src=\"bees-with-color/bee-A1DF.svg\" width=\"200\">\n                    <p><br>Your bonus pay is unchanged, and remains at $0.30.</p>\n            ","response":0,"trial_type":"html-button-response","trial_index":40,"time_elapsed":240839,"internal_node_id":"0.0-4.0-1.14","subject_id":"60ca1c436511b9fc8ab35615","study_id":"6197b3f67c2b5cd3b6d9596a","session_id":"619be31d8809d17b621e9a0d","condition":"contingent","relevant_dimensions":["wings","legs"],"bee_group":{"antennae":"X","wings":"1","pattern":"X","legs":"M"},"bonus":0.1},{"rt":790.7000000476837,"stimulus":"bees-with-color/bee-B1DF.svg","response":0,"trial_type":"image-button-response","trial_index":41,"time_elapsed":241631,"internal_node_id":"0.0-4.0-0.15","subject_id":"60ca1c436511b9fc8ab35615","study_id":"6197b3f67c2b5cd3b6d9596a","session_id":"619be31d8809d17b621e9a0d","condition":"contingent","relevant_dimensions":["wings","legs"],"bee_group":{"antennae":"X","wings":"1","pattern":"X","legs":"M"},"action":"harvest","summary":"good-harvest","bonus":0.1},{"rt":1054.7000000476837,"stimulus":"\n                    <p><b>Action: <em>harvest</em></b></p>\n                    <p>This is the bee that you just saw.</p>\n                    <img src=\"bees-with-color/bee-B1DF.svg\" width=\"200\">\n                    <p><span class=\"greenText\"><b>Successful harvest!</b></span><br>Your pay has increased by $0.02. Your bonus pay is now $0.32.</p>\n            ","response":0,"trial_type":"html-button-response","trial_index":42,"time_elapsed":242687,"internal_node_id":"0.0-4.0-1.15","subject_id":"60ca1c436511b9fc8ab35615","study_id":"6197b3f67c2b5cd3b6d9596a","session_id":"619be31d8809d17b621e9a0d","condition":"contingent","relevant_dimensions":["wings","legs"],"bee_group":{"antennae":"X","wings":"1","pattern":"X","legs":"M"},"bonus":0.1},{"rt":470.60000002384186,"stimulus":"bees-with-color/bee-A2SF.svg","response":1,"trial_type":"image-button-response","trial_index":43,"time_elapsed":243159,"internal_node_id":"0.0-4.0-0.16","subject_id":"60ca1c436511b9fc8ab35615","study_id":"6197b3f67c2b5cd3b6d9596a","session_id":"619be31d8809d17b621e9a0d","condition":"contingent","relevant_dimensions":["wings","legs"],"bee_group":{"antennae":"X","wings":"1","pattern":"X","legs":"M"},"action":"avoid","summary":"bad-avoid","bonus":0.1},{"rt":1278.5,"stimulus":"\n                    <p><b>Action: <em>avoid</em></b></p>\n                    <p>This is the bee that you just saw.</p>\n                    <img src=\"bees-with-color/bee-A2SF.svg\" width=\"200\">\n                    <p><br>Your bonus pay is unchanged, and remains at $0.32.</p>\n            ","response":0,"trial_type":"html-button-response","trial_index":44,"time_elapsed":244439,"internal_node_id":"0.0-4.0-1.16","subject_id":"60ca1c436511b9fc8ab35615","study_id":"6197b3f67c2b5cd3b6d9596a","session_id":"619be31d8809d17b621e9a0d","condition":"contingent","relevant_dimensions":["wings","legs"],"bee_group":{"antennae":"X","wings":"1","pattern":"X","legs":"M"},"bonus":0.1},{"rt":558.6000000238419,"stimulus":"bees-with-color/bee-A1DM.svg","response":0,"trial_type":"image-button-response","trial_index":45,"time_elapsed":244999,"internal_node_id":"0.0-4.0-0.17","subject_id":"60ca1c436511b9fc8ab35615","study_id":"6197b3f67c2b5cd3b6d9596a","session_id":"619be31d8809d17b621e9a0d","condition":"contingent","relevant_dimensions":["wings","legs"],"bee_group":{"antennae":"X","wings":"1","pattern":"X","legs":"M"},"action":"harvest","summary":"bad-harvest","bonus":0.1},{"rt":934.4000000953674,"stimulus":"\n                    <p><b>Action: <em>harvest</em></b></p>\n                    <p>This is the bee that you just saw.</p>\n                    <img src=\"bees-with-color/bee-A1DM.svg\" width=\"200\">\n                    <p><span class=\"redText\">Bad choice, the bee was angry.</span><br><b>You have been stung!</b><br>Your pay has been decreased by $0.10. Your bonus pay is now $0.22.</p>\n            ","response":0,"trial_type":"html-button-response","trial_index":46,"time_elapsed":245935,"internal_node_id":"0.0-4.0-1.17","subject_id":"60ca1c436511b9fc8ab35615","study_id":"6197b3f67c2b5cd3b6d9596a","session_id":"619be31d8809d17b621e9a0d","condition":"contingent","relevant_dimensions":["wings","legs"],"bee_group":{"antennae":"X","wings":"1","pattern":"X","legs":"M"},"bonus":0.1},{"rt":1566.5,"stimulus":"bees-with-color/bee-A1SF.svg","response":0,"trial_type":"image-button-response","trial_index":47,"time_elapsed":247503,"internal_node_id":"0.0-4.0-0.18","subject_id":"60ca1c436511b9fc8ab35615","study_id":"6197b3f67c2b5cd3b6d9596a","session_id":"619be31d8809d17b621e9a0d","condition":"contingent","relevant_dimensions":["wings","legs"],"bee_group":{"antennae":"X","wings":"1","pattern":"X","legs":"M"},"action":"harvest","summary":"good-harvest","bonus":0.1},{"rt":622.4000000953674,"stimulus":"\n                    <p><b>Action: <em>harvest</em></b></p>\n                    <p>This is the bee that you just saw.</p>\n                    <img src=\"bees-with-color/bee-A1SF.svg\" width=\"200\">\n                    <p><span class=\"greenText\"><b>Successful harvest!</b></span><br>Your pay has increased by $0.02. Your bonus pay is now $0.24.</p>\n            ","response":0,"trial_type":"html-button-response","trial_index":48,"time_elapsed":248127,"internal_node_id":"0.0-4.0-1.18","subject_id":"60ca1c436511b9fc8ab35615","study_id":"6197b3f67c2b5cd3b6d9596a","session_id":"619be31d8809d17b621e9a0d","condition":"contingent","relevant_dimensions":["wings","legs"],"bee_group":{"antennae":"X","wings":"1","pattern":"X","legs":"M"},"bonus":0.1},{"rt":502.5,"stimulus":"bees-with-color/bee-A2DM.svg","response":0,"trial_type":"image-button-response","trial_index":49,"time_elapsed":248631,"internal_node_id":"0.0-4.0-0.19","subject_id":"60ca1c436511b9fc8ab35615","study_id":"6197b3f67c2b5cd3b6d9596a","session_id":"619be31d8809d17b621e9a0d","condition":"contingent","relevant_dimensions":["wings","legs"],"bee_group":{"antennae":"X","wings":"1","pattern":"X","legs":"M"},"action":"harvest","summary":"good-harvest","bonus":0.1},{"rt":694.6000000238419,"stimulus":"\n                    <p><b>Action: <em>harvest</em></b></p>\n                    <p>This is the bee that you just saw.</p>\n                    <img src=\"bees-with-color/bee-A2DM.svg\" width=\"200\">\n                    <p><span class=\"greenText\"><b>Successful harvest!</b></span><br>Your pay has increased by $0.02. Your bonus pay is now $0.26.</p>\n            ","response":0,"trial_type":"html-button-response","trial_index":50,"time_elapsed":249327,"internal_node_id":"0.0-4.0-1.19","subject_id":"60ca1c436511b9fc8ab35615","study_id":"6197b3f67c2b5cd3b6d9596a","session_id":"619be31d8809d17b621e9a0d","condition":"contingent","relevant_dimensions":["wings","legs"],"bee_group":{"antennae":"X","wings":"1","pattern":"X","legs":"M"},"bonus":0.1},{"rt":550.8000000715256,"stimulus":"bees-with-color/bee-B1SF.svg","response":1,"trial_type":"image-button-response","trial_index":51,"time_elapsed":249879,"internal_node_id":"0.0-4.0-0.20","subject_id":"60ca1c436511b9fc8ab35615","study_id":"6197b3f67c2b5cd3b6d9596a","session_id":"619be31d8809d17b621e9a0d","condition":"contingent","relevant_dimensions":["wings","legs"],"bee_group":{"antennae":"X","wings":"1","pattern":"X","legs":"M"},"action":"avoid","summary":"bad-avoid","bonus":0.1},{"rt":838.7000000476837,"stimulus":"\n                    <p><b>Action: <em>avoid</em></b></p>\n                    <p>This is the bee that you just saw.</p>\n                    <img src=\"bees-with-color/bee-B1SF.svg\" width=\"200\">\n                    <p><br>Your bonus pay is unchanged, and remains at $0.26.</p>\n            ","response":0,"trial_type":"html-button-response","trial_index":52,"time_elapsed":250719,"internal_node_id":"0.0-4.0-1.20","subject_id":"60ca1c436511b9fc8ab35615","study_id":"6197b3f67c2b5cd3b6d9596a","session_id":"619be31d8809d17b621e9a0d","condition":"contingent","relevant_dimensions":["wings","legs"],"bee_group":{"antennae":"X","wings":"1","pattern":"X","legs":"M"},"bonus":0.1},{"rt":1518.7000000476837,"stimulus":"bees-with-color/bee-B2SF.svg","response":0,"trial_type":"image-button-response","trial_index":53,"time_elapsed":252239,"internal_node_id":"0.0-4.0-0.21","subject_id":"60ca1c436511b9fc8ab35615","study_id":"6197b3f67c2b5cd3b6d9596a","session_id":"619be31d8809d17b621e9a0d","condition":"contingent","relevant_dimensions":["wings","legs"],"bee_group":{"antennae":"X","wings":"1","pattern":"X","legs":"M"},"action":"harvest","summary":"good-harvest","bonus":0.1},{"rt":838.4000000953674,"stimulus":"\n                    <p><b>Action: <em>harvest</em></b></p>\n                    <p>This is the bee that you just saw.</p>\n                    <img src=\"bees-with-color/bee-B2SF.svg\" width=\"200\">\n                    <p><span class=\"greenText\"><b>Successful harvest!</b></span><br>Your pay has increased by $0.02. Your bonus pay is now $0.28.</p>\n            ","response":0,"trial_type":"html-button-response","trial_index":54,"time_elapsed":253079,"internal_node_id":"0.0-4.0-1.21","subject_id":"60ca1c436511b9fc8ab35615","study_id":"6197b3f67c2b5cd3b6d9596a","session_id":"619be31d8809d17b621e9a0d","condition":"contingent","relevant_dimensions":["wings","legs"],"bee_group":{"antennae":"X","wings":"1","pattern":"X","legs":"M"},"bonus":0.1},{"rt":790.6000000238419,"stimulus":"bees-with-color/bee-A1SM.svg","response":0,"trial_type":"image-button-response","trial_index":55,"time_elapsed":253871,"internal_node_id":"0.0-4.0-0.22","subject_id":"60ca1c436511b9fc8ab35615","study_id":"6197b3f67c2b5cd3b6d9596a","session_id":"619be31d8809d17b621e9a0d","condition":"contingent","relevant_dimensions":["wings","legs"],"bee_group":{"antennae":"X","wings":"1","pattern":"X","legs":"M"},"action":"harvest","summary":"bad-harvest","bonus":0.1},{"rt":870.3000000715256,"stimulus":"\n                    <p><b>Action: <em>harvest</em></b></p>\n                    <p>This is the bee that you just saw.</p>\n                    <img src=\"bees-with-color/bee-A1SM.svg\" width=\"200\">\n                    <p><span class=\"redText\">Bad choice, the bee was angry.</span><br><b>You have been stung!</b><br>Your pay has been decreased by $0.10. Your bonus pay is now $0.18.</p>\n            ","response":0,"trial_type":"html-button-response","trial_index":56,"time_elapsed":254743,"internal_node_id":"0.0-4.0-1.22","subject_id":"60ca1c436511b9fc8ab35615","study_id":"6197b3f67c2b5cd3b6d9596a","session_id":"619be31d8809d17b621e9a0d","condition":"contingent","relevant_dimensions":["wings","legs"],"bee_group":{"antennae":"X","wings":"1","pattern":"X","legs":"M"},"bonus":0.1},{"rt":598.6000000238419,"stimulus":"bees-with-color/bee-A1DF.svg","response":1,"trial_type":"image-button-response","trial_index":57,"time_elapsed":255343,"internal_node_id":"0.0-4.0-0.23","subject_id":"60ca1c436511b9fc8ab35615","study_id":"6197b3f67c2b5cd3b6d9596a","session_id":"619be31d8809d17b621e9a0d","condition":"contingent","relevant_dimensions":["wings","legs"],"bee_group":{"antennae":"X","wings":"1","pattern":"X","legs":"M"},"action":"avoid","summary":"bad-avoid","bonus":0.1},{"rt":1094.4000000953674,"stimulus":"\n                    <p><b>Action: <em>avoid</em></b></p>\n                    <p>This is the bee that you just saw.</p>\n                    <img src=\"bees-with-color/bee-A1DF.svg\" width=\"200\">\n                    <p><br>Your bonus pay is unchanged, and remains at $0.18.</p>\n            ","response":0,"trial_type":"html-button-response","trial_index":58,"time_elapsed":256439,"internal_node_id":"0.0-4.0-1.23","subject_id":"60ca1c436511b9fc8ab35615","study_id":"6197b3f67c2b5cd3b6d9596a","session_id":"619be31d8809d17b621e9a0d","condition":"contingent","relevant_dimensions":["wings","legs"],"bee_group":{"antennae":"X","wings":"1","pattern":"X","legs":"M"},"bonus":0.1},{"rt":1190.4000000953674,"stimulus":"bees-with-color/bee-B2DF.svg","response":0,"trial_type":"image-button-response","trial_index":59,"time_elapsed":257631,"internal_node_id":"0.0-4.0-0.24","subject_id":"60ca1c436511b9fc8ab35615","study_id":"6197b3f67c2b5cd3b6d9596a","session_id":"619be31d8809d17b621e9a0d","condition":"contingent","relevant_dimensions":["wings","legs"],"bee_group":{"antennae":"X","wings":"1","pattern":"X","legs":"M"},"action":"harvest","summary":"good-harvest","bonus":0.1},{"rt":1678.4000000953674,"stimulus":"\n                    <p><b>Action: <em>harvest</em></b></p>\n                    <p>This is the bee that you just saw.</p>\n                    <img src=\"bees-with-color/bee-B2DF.svg\" width=\"200\">\n                    <p><span class=\"greenText\"><b>Successful harvest!</b></span><br>Your pay has increased by $0.02. Your bonus pay is now $0.20.</p>\n            ","response":0,"trial_type":"html-button-response","trial_index":60,"time_elapsed":259311,"internal_node_id":"0.0-4.0-1.24","subject_id":"60ca1c436511b9fc8ab35615","study_id":"6197b3f67c2b5cd3b6d9596a","session_id":"619be31d8809d17b621e9a0d","condition":"contingent","relevant_dimensions":["wings","legs"],"bee_group":{"antennae":"X","wings":"1","pattern":"X","legs":"M"},"bonus":0.1},{"rt":782.2999999523163,"stimulus":"bees-with-color/bee-B1SM.svg","response":0,"trial_type":"image-button-response","trial_index":61,"time_elapsed":260095,"internal_node_id":"0.0-4.0-0.25","subject_id":"60ca1c436511b9fc8ab35615","study_id":"6197b3f67c2b5cd3b6d9596a","session_id":"619be31d8809d17b621e9a0d","condition":"contingent","relevant_dimensions":["wings","legs"],"bee_group":{"antennae":"X","wings":"1","pattern":"X","legs":"M"},"action":"harvest","summary":"bad-harvest","bonus":0.1},{"rt":1142.4000000953674,"stimulus":"\n                    <p><b>Action: <em>harvest</em></b></p>\n                    <p>This is the bee that you just saw.</p>\n                    <img src=\"bees-with-color/bee-B1SM.svg\" width=\"200\">\n                    <p><span class=\"redText\">Bad choice, the bee was angry.</span><br><b>You have been stung!</b><br>Your pay has been decreased by $0.10. Your bonus pay is now $0.10.</p>\n            ","response":0,"trial_type":"html-button-response","trial_index":62,"time_elapsed":261239,"internal_node_id":"0.0-4.0-1.25","subject_id":"60ca1c436511b9fc8ab35615","study_id":"6197b3f67c2b5cd3b6d9596a","session_id":"619be31d8809d17b621e9a0d","condition":"contingent","relevant_dimensions":["wings","legs"],"bee_group":{"antennae":"X","wings":"1","pattern":"X","legs":"M"},"bonus":0.1},{"rt":1382.5999999046326,"stimulus":"bees-with-color/bee-B2SM.svg","response":0,"trial_type":"image-button-response","trial_index":63,"time_elapsed":262623,"internal_node_id":"0.0-4.0-0.26","subject_id":"60ca1c436511b9fc8ab35615","study_id":"6197b3f67c2b5cd3b6d9596a","session_id":"619be31d8809d17b621e9a0d","condition":"contingent","relevant_dimensions":["wings","legs"],"bee_group":{"antennae":"X","wings":"1","pattern":"X","legs":"M"},"action":"harvest","summary":"good-harvest","bonus":0.1},{"rt":654.2999999523163,"stimulus":"\n                    <p><b>Action: <em>harvest</em></b></p>\n                    <p>This is the bee that you just saw.</p>\n                    <img src=\"bees-with-color/bee-B2SM.svg\" width=\"200\">\n                    <p><span class=\"greenText\"><b>Successful harvest!</b></span><br>Your pay has increased by $0.02. Your bonus pay is now $0.12.</p>\n            ","response":0,"trial_type":"html-button-response","trial_index":64,"time_elapsed":263279,"internal_node_id":"0.0-4.0-1.26","subject_id":"60ca1c436511b9fc8ab35615","study_id":"6197b3f67c2b5cd3b6d9596a","session_id":"619be31d8809d17b621e9a0d","condition":"contingent","relevant_dimensions":["wings","legs"],"bee_group":{"antennae":"X","wings":"1","pattern":"X","legs":"M"},"bonus":0.1},{"rt":446.10000002384186,"stimulus":"bees-with-color/bee-A2DF.svg","response":0,"trial_type":"image-button-response","trial_index":65,"time_elapsed":263727,"internal_node_id":"0.0-4.0-0.27","subject_id":"60ca1c436511b9fc8ab35615","study_id":"6197b3f67c2b5cd3b6d9596a","session_id":"619be31d8809d17b621e9a0d","condition":"contingent","relevant_dimensions":["wings","legs"],"bee_group":{"antennae":"X","wings":"1","pattern":"X","legs":"M"},"action":"harvest","summary":"good-harvest","bonus":0.1},{"rt":598.5,"stimulus":"\n                    <p><b>Action: <em>harvest</em></b></p>\n                    <p>This is the bee that you just saw.</p>\n                    <img src=\"bees-with-color/bee-A2DF.svg\" width=\"200\">\n                    <p><span class=\"greenText\"><b>Successful harvest!</b></span><br>Your pay has increased by $0.02. Your bonus pay is now $0.14.</p>\n            ","response":0,"trial_type":"html-button-response","trial_index":66,"time_elapsed":264327,"internal_node_id":"0.0-4.0-1.27","subject_id":"60ca1c436511b9fc8ab35615","study_id":"6197b3f67c2b5cd3b6d9596a","session_id":"619be31d8809d17b621e9a0d","condition":"contingent","relevant_dimensions":["wings","legs"],"bee_group":{"antennae":"X","wings":"1","pattern":"X","legs":"M"},"bonus":0.1},{"rt":430.10000002384186,"stimulus":"bees-with-color/bee-B1DM.svg","response":1,"trial_type":"image-button-response","trial_index":67,"time_elapsed":264759,"internal_node_id":"0.0-4.0-0.28","subject_id":"60ca1c436511b9fc8ab35615","study_id":"6197b3f67c2b5cd3b6d9596a","session_id":"619be31d8809d17b621e9a0d","condition":"contingent","relevant_dimensions":["wings","legs"],"bee_group":{"antennae":"X","wings":"1","pattern":"X","legs":"M"},"action":"avoid","summary":"good-avoid","bonus":0.1},{"rt":870.6000000238419,"stimulus":"\n                    <p><b>Action: <em>avoid</em></b></p>\n                    <p>This is the bee that you just saw.</p>\n                    <img src=\"bees-with-color/bee-B1DM.svg\" width=\"200\">\n                    <p><br>Your bonus pay is unchanged, and remains at $0.14.</p>\n            ","response":0,"trial_type":"html-button-response","trial_index":68,"time_elapsed":265631,"internal_node_id":"0.0-4.0-1.28","subject_id":"60ca1c436511b9fc8ab35615","study_id":"6197b3f67c2b5cd3b6d9596a","session_id":"619be31d8809d17b621e9a0d","condition":"contingent","relevant_dimensions":["wings","legs"],"bee_group":{"antennae":"X","wings":"1","pattern":"X","legs":"M"},"bonus":0.1},{"rt":774.5,"stimulus":"bees-with-color/bee-B1DF.svg","response":0,"trial_type":"image-button-response","trial_index":69,"time_elapsed":266407,"internal_node_id":"0.0-4.0-0.29","subject_id":"60ca1c436511b9fc8ab35615","study_id":"6197b3f67c2b5cd3b6d9596a","session_id":"619be31d8809d17b621e9a0d","condition":"contingent","relevant_dimensions":["wings","legs"],"bee_group":{"antennae":"X","wings":"1","pattern":"X","legs":"M"},"action":"harvest","summary":"good-harvest","bonus":0.1},{"rt":862.3999999761581,"stimulus":"\n                    <p><b>Action: <em>harvest</em></b></p>\n                    <p>This is the bee that you just saw.</p>\n                    <img src=\"bees-with-color/bee-B1DF.svg\" width=\"200\">\n                    <p><span class=\"greenText\"><b>Successful harvest!</b></span><br>Your pay has increased by $0.02. Your bonus pay is now $0.16.</p>\n            ","response":0,"trial_type":"html-button-response","trial_index":70,"time_elapsed":267271,"internal_node_id":"0.0-4.0-1.29","subject_id":"60ca1c436511b9fc8ab35615","study_id":"6197b3f67c2b5cd3b6d9596a","session_id":"619be31d8809d17b621e9a0d","condition":"contingent","relevant_dimensions":["wings","legs"],"bee_group":{"antennae":"X","wings":"1","pattern":"X","legs":"M"},"bonus":0.1},{"rt":1118.7999999523163,"stimulus":"bees-with-color/bee-B2DM.svg","response":0,"trial_type":"image-button-response","trial_index":71,"time_elapsed":268391,"internal_node_id":"0.0-4.0-0.30","subject_id":"60ca1c436511b9fc8ab35615","study_id":"6197b3f67c2b5cd3b6d9596a","session_id":"619be31d8809d17b621e9a0d","condition":"contingent","relevant_dimensions":["wings","legs"],"bee_group":{"antennae":"X","wings":"1","pattern":"X","legs":"M"},"action":"harvest","summary":"good-harvest","bonus":0.1},{"rt":663,"stimulus":"\n                    <p><b>Action: <em>harvest</em></b></p>\n                    <p>This is the bee that you just saw.</p>\n                    <img src=\"bees-with-color/bee-B2DM.svg\" width=\"200\">\n                    <p><span class=\"greenText\"><b>Successful harvest!</b></span><br>Your pay has increased by $0.02. Your bonus pay is now $0.18.</p>\n            ","response":0,"trial_type":"html-button-response","trial_index":72,"time_elapsed":269055,"internal_node_id":"0.0-4.0-1.30","subject_id":"60ca1c436511b9fc8ab35615","study_id":"6197b3f67c2b5cd3b6d9596a","session_id":"619be31d8809d17b621e9a0d","condition":"contingent","relevant_dimensions":["wings","legs"],"bee_group":{"antennae":"X","wings":"1","pattern":"X","legs":"M"},"bonus":0.1},{"rt":862.4000000953674,"stimulus":"bees-with-color/bee-A2SM.svg","response":1,"trial_type":"image-button-response","trial_index":73,"time_elapsed":269919,"internal_node_id":"0.0-4.0-0.31","subject_id":"60ca1c436511b9fc8ab35615","study_id":"6197b3f67c2b5cd3b6d9596a","session_id":"619be31d8809d17b621e9a0d","condition":"contingent","relevant_dimensions":["wings","legs"],"bee_group":{"antennae":"X","wings":"1","pattern":"X","legs":"M"},"action":"avoid","summary":"bad-avoid","bonus":0.1},{"rt":670.8000000715256,"stimulus":"\n                    <p><b>Action: <em>avoid</em></b></p>\n                    <p>This is the bee that you just saw.</p>\n                    <img src=\"bees-with-color/bee-A2SM.svg\" width=\"200\">\n                    <p><br>Your bonus pay is unchanged, and remains at $0.18.</p>\n            ","response":0,"trial_type":"html-button-response","trial_index":74,"time_elapsed":270591,"internal_node_id":"0.0-4.0-1.31","subject_id":"60ca1c436511b9fc8ab35615","study_id":"6197b3f67c2b5cd3b6d9596a","session_id":"619be31d8809d17b621e9a0d","condition":"contingent","relevant_dimensions":["wings","legs"],"bee_group":{"antennae":"X","wings":"1","pattern":"X","legs":"M"},"bonus":0.1},{"rt":510.8000000715256,"stimulus":"bees-with-color/bee-A2DM.svg","response":0,"trial_type":"image-button-response","trial_index":75,"time_elapsed":271103,"internal_node_id":"0.0-4.0-0.32","subject_id":"60ca1c436511b9fc8ab35615","study_id":"6197b3f67c2b5cd3b6d9596a","session_id":"619be31d8809d17b621e9a0d","condition":"contingent","relevant_dimensions":["wings","legs"],"bee_group":{"antennae":"X","wings":"1","pattern":"X","legs":"M"},"action":"harvest","summary":"good-harvest","bonus":0.1},{"rt":718.5999999046326,"stimulus":"\n                    <p><b>Action: <em>harvest</em></b></p>\n                    <p>This is the bee that you just saw.</p>\n                    <img src=\"bees-with-color/bee-A2DM.svg\" width=\"200\">\n                    <p><span class=\"greenText\"><b>Successful harvest!</b></span><br>Your pay has increased by $0.02. Your bonus pay is now $0.20.</p>\n            ","response":0,"trial_type":"html-button-response","trial_index":76,"time_elapsed":271823,"internal_node_id":"0.0-4.0-1.32","subject_id":"60ca1c436511b9fc8ab35615","study_id":"6197b3f67c2b5cd3b6d9596a","session_id":"619be31d8809d17b621e9a0d","condition":"contingent","relevant_dimensions":["wings","legs"],"bee_group":{"antennae":"X","wings":"1","pattern":"X","legs":"M"},"bonus":0.1},{"rt":510.7000000476837,"stimulus":"bees-with-color/bee-A2SF.svg","response":0,"trial_type":"image-button-response","trial_index":77,"time_elapsed":272335,"internal_node_id":"0.0-4.0-0.33","subject_id":"60ca1c436511b9fc8ab35615","study_id":"6197b3f67c2b5cd3b6d9596a","session_id":"619be31d8809d17b621e9a0d","condition":"contingent","relevant_dimensions":["wings","legs"],"bee_group":{"antennae":"X","wings":"1","pattern":"X","legs":"M"},"action":"harvest","summary":"good-harvest","bonus":0.1},{"rt":582.7000000476837,"stimulus":"\n                    <p><b>Action: <em>harvest</em></b></p>\n                    <p>This is the bee that you just saw.</p>\n                    <img src=\"bees-with-color/bee-A2SF.svg\" width=\"200\">\n                    <p><span class=\"greenText\"><b>Successful harvest!</b></span><br>Your pay has increased by $0.02. Your bonus pay is now $0.22.</p>\n            ","response":0,"trial_type":"html-button-response","trial_index":78,"time_elapsed":272919,"internal_node_id":"0.0-4.0-1.33","subject_id":"60ca1c436511b9fc8ab35615","study_id":"6197b3f67c2b5cd3b6d9596a","session_id":"619be31d8809d17b621e9a0d","condition":"contingent","relevant_dimensions":["wings","legs"],"bee_group":{"antennae":"X","wings":"1","pattern":"X","legs":"M"},"bonus":0.1},{"rt":438.8000000715256,"stimulus":"bees-with-color/bee-A1DM.svg","response":1,"trial_type":"image-button-response","trial_index":79,"time_elapsed":273359,"internal_node_id":"0.0-4.0-0.34","subject_id":"60ca1c436511b9fc8ab35615","study_id":"6197b3f67c2b5cd3b6d9596a","session_id":"619be31d8809d17b621e9a0d","condition":"contingent","relevant_dimensions":["wings","legs"],"bee_group":{"antennae":"X","wings":"1","pattern":"X","legs":"M"},"action":"avoid","summary":"good-avoid","bonus":0.1},{"rt":854.6000000238419,"stimulus":"\n                    <p><b>Action: <em>avoid</em></b></p>\n                    <p>This is the bee that you just saw.</p>\n                    <img src=\"bees-with-color/bee-A1DM.svg\" width=\"200\">\n                    <p><br>Your bonus pay is unchanged, and remains at $0.22.</p>\n            ","response":0,"trial_type":"html-button-response","trial_index":80,"time_elapsed":274215,"internal_node_id":"0.0-4.0-1.34","subject_id":"60ca1c436511b9fc8ab35615","study_id":"6197b3f67c2b5cd3b6d9596a","session_id":"619be31d8809d17b621e9a0d","condition":"contingent","relevant_dimensions":["wings","legs"],"bee_group":{"antennae":"X","wings":"1","pattern":"X","legs":"M"},"bonus":0.1},{"rt":1222.6000000238419,"stimulus":"bees-with-color/bee-B2DM.svg","response":0,"trial_type":"image-button-response","trial_index":81,"time_elapsed":275439,"internal_node_id":"0.0-4.0-0.35","subject_id":"60ca1c436511b9fc8ab35615","study_id":"6197b3f67c2b5cd3b6d9596a","session_id":"619be31d8809d17b621e9a0d","condition":"contingent","relevant_dimensions":["wings","legs"],"bee_group":{"antennae":"X","wings":"1","pattern":"X","legs":"M"},"action":"harvest","summary":"good-harvest","bonus":0.1},{"rt":638.9000000953674,"stimulus":"\n                    <p><b>Action: <em>harvest</em></b></p>\n                    <p>This is the bee that you just saw.</p>\n                    <img src=\"bees-with-color/bee-B2DM.svg\" width=\"200\">\n                    <p><span class=\"greenText\"><b>Successful harvest!</b></span><br>Your pay has increased by $0.02. Your bonus pay is now $0.24.</p>\n            ","response":0,"trial_type":"html-button-response","trial_index":82,"time_elapsed":276079,"internal_node_id":"0.0-4.0-1.35","subject_id":"60ca1c436511b9fc8ab35615","study_id":"6197b3f67c2b5cd3b6d9596a","session_id":"619be31d8809d17b621e9a0d","condition":"contingent","relevant_dimensions":["wings","legs"],"bee_group":{"antennae":"X","wings":"1","pattern":"X","legs":"M"},"bonus":0.1},{"rt":806.9000000953674,"stimulus":"bees-with-color/bee-A2DF.svg","response":0,"trial_type":"image-button-response","trial_index":83,"time_elapsed":276887,"internal_node_id":"0.0-4.0-0.36","subject_id":"60ca1c436511b9fc8ab35615","study_id":"6197b3f67c2b5cd3b6d9596a","session_id":"619be31d8809d17b621e9a0d","condition":"contingent","relevant_dimensions":["wings","legs"],"bee_group":{"antennae":"X","wings":"1","pattern":"X","legs":"M"},"action":"harvest","summary":"good-harvest","bonus":0.1},{"rt":622.5,"stimulus":"\n                    <p><b>Action: <em>harvest</em></b></p>\n                    <p>This is the bee that you just saw.</p>\n                    <img src=\"bees-with-color/bee-A2DF.svg\" width=\"200\">\n                    <p><span class=\"greenText\"><b>Successful harvest!</b></span><br>Your pay has increased by $0.02. Your bonus pay is now $0.26.</p>\n            ","response":0,"trial_type":"html-button-response","trial_index":84,"time_elapsed":277511,"internal_node_id":"0.0-4.0-1.36","subject_id":"60ca1c436511b9fc8ab35615","study_id":"6197b3f67c2b5cd3b6d9596a","session_id":"619be31d8809d17b621e9a0d","condition":"contingent","relevant_dimensions":["wings","legs"],"bee_group":{"antennae":"X","wings":"1","pattern":"X","legs":"M"},"bonus":0.1},{"rt":662.6000000238419,"stimulus":"bees-with-color/bee-A1SM.svg","response":1,"trial_type":"image-button-response","trial_index":85,"time_elapsed":278175,"internal_node_id":"0.0-4.0-0.37","subject_id":"60ca1c436511b9fc8ab35615","study_id":"6197b3f67c2b5cd3b6d9596a","session_id":"619be31d8809d17b621e9a0d","condition":"contingent","relevant_dimensions":["wings","legs"],"bee_group":{"antennae":"X","wings":"1","pattern":"X","legs":"M"},"action":"avoid","summary":"good-avoid","bonus":0.1},{"rt":719,"stimulus":"\n                    <p><b>Action: <em>avoid</em></b></p>\n                    <p>This is the bee that you just saw.</p>\n                    <img src=\"bees-with-color/bee-A1SM.svg\" width=\"200\">\n                    <p><br>Your bonus pay is unchanged, and remains at $0.26.</p>\n            ","response":0,"trial_type":"html-button-response","trial_index":86,"time_elapsed":278895,"internal_node_id":"0.0-4.0-1.37","subject_id":"60ca1c436511b9fc8ab35615","study_id":"6197b3f67c2b5cd3b6d9596a","session_id":"619be31d8809d17b621e9a0d","condition":"contingent","relevant_dimensions":["wings","legs"],"bee_group":{"antennae":"X","wings":"1","pattern":"X","legs":"M"},"bonus":0.1},{"rt":726.2999999523163,"stimulus":"bees-with-color/bee-A1SF.svg","response":0,"trial_type":"image-button-response","trial_index":87,"time_elapsed":279623,"internal_node_id":"0.0-4.0-0.38","subject_id":"60ca1c436511b9fc8ab35615","study_id":"6197b3f67c2b5cd3b6d9596a","session_id":"619be31d8809d17b621e9a0d","condition":"contingent","relevant_dimensions":["wings","legs"],"bee_group":{"antennae":"X","wings":"1","pattern":"X","legs":"M"},"action":"harvest","summary":"good-harvest","bonus":0.1},{"rt":718.7000000476837,"stimulus":"\n                    <p><b>Action: <em>harvest</em></b></p>\n                    <p>This is the bee that you just saw.</p>\n                    <img src=\"bees-with-color/bee-A1SF.svg\" width=\"200\">\n                    <p><span class=\"greenText\"><b>Successful harvest!</b></span><br>Your pay has increased by $0.02. Your bonus pay is now $0.28.</p>\n            ","response":0,"trial_type":"html-button-response","trial_index":88,"time_elapsed":280343,"internal_node_id":"0.0-4.0-1.38","subject_id":"60ca1c436511b9fc8ab35615","study_id":"6197b3f67c2b5cd3b6d9596a","session_id":"619be31d8809d17b621e9a0d","condition":"contingent","relevant_dimensions":["wings","legs"],"bee_group":{"antennae":"X","wings":"1","pattern":"X","legs":"M"},"bonus":0.1},{"rt":390.8000000715256,"stimulus":"bees-with-color/bee-B2SM.svg","response":0,"trial_type":"image-button-response","trial_index":89,"time_elapsed":280735,"internal_node_id":"0.0-4.0-0.39","subject_id":"60ca1c436511b9fc8ab35615","study_id":"6197b3f67c2b5cd3b6d9596a","session_id":"619be31d8809d17b621e9a0d","condition":"contingent","relevant_dimensions":["wings","legs"],"bee_group":{"antennae":"X","wings":"1","pattern":"X","legs":"M"},"action":"harvest","summary":"good-harvest","bonus":0.1},{"rt":598.7000000476837,"stimulus":"\n                    <p><b>Action: <em>harvest</em></b></p>\n                    <p>This is the bee that you just saw.</p>\n                    <img src=\"bees-with-color/bee-B2SM.svg\" width=\"200\">\n                    <p><span class=\"greenText\"><b>Successful harvest!</b></span><br>Your pay has increased by $0.02. Your bonus pay is now $0.30.</p>\n            ","response":0,"trial_type":"html-button-response","trial_index":90,"time_elapsed":281335,"internal_node_id":"0.0-4.0-1.39","subject_id":"60ca1c436511b9fc8ab35615","study_id":"6197b3f67c2b5cd3b6d9596a","session_id":"619be31d8809d17b621e9a0d","condition":"contingent","relevant_dimensions":["wings","legs"],"bee_group":{"antennae":"X","wings":"1","pattern":"X","legs":"M"},"bonus":0.1},{"rt":862.6000000238419,"stimulus":"bees-with-color/bee-A2SM.svg","response":1,"trial_type":"image-button-response","trial_index":91,"time_elapsed":282199,"internal_node_id":"0.0-4.0-0.40","subject_id":"60ca1c436511b9fc8ab35615","study_id":"6197b3f67c2b5cd3b6d9596a","session_id":"619be31d8809d17b621e9a0d","condition":"contingent","relevant_dimensions":["wings","legs"],"bee_group":{"antennae":"X","wings":"1","pattern":"X","legs":"M"},"action":"avoid","summary":"bad-avoid","bonus":0.1},{"rt":1022.7999999523163,"stimulus":"\n                    <p><b>Action: <em>avoid</em></b></p>\n                    <p>This is the bee that you just saw.</p>\n                    <img src=\"bees-with-color/bee-A2SM.svg\" width=\"200\">\n                    <p><br>Your bonus pay is unchanged, and remains at $0.30.</p>\n            ","response":0,"trial_type":"html-button-response","trial_index":92,"time_elapsed":283223,"internal_node_id":"0.0-4.0-1.40","subject_id":"60ca1c436511b9fc8ab35615","study_id":"6197b3f67c2b5cd3b6d9596a","session_id":"619be31d8809d17b621e9a0d","condition":"contingent","relevant_dimensions":["wings","legs"],"bee_group":{"antennae":"X","wings":"1","pattern":"X","legs":"M"},"bonus":0.1},{"rt":678.5,"stimulus":"bees-with-color/bee-B2SF.svg","response":0,"trial_type":"image-button-response","trial_index":93,"time_elapsed":283903,"internal_node_id":"0.0-4.0-0.41","subject_id":"60ca1c436511b9fc8ab35615","study_id":"6197b3f67c2b5cd3b6d9596a","session_id":"619be31d8809d17b621e9a0d","condition":"contingent","relevant_dimensions":["wings","legs"],"bee_group":{"antennae":"X","wings":"1","pattern":"X","legs":"M"},"action":"harvest","summary":"good-harvest","bonus":0.1},{"rt":710.3000000715256,"stimulus":"\n                    <p><b>Action: <em>harvest</em></b></p>\n                    <p>This is the bee that you just saw.</p>\n                    <img src=\"bees-with-color/bee-B2SF.svg\" width=\"200\">\n                    <p><span class=\"greenText\"><b>Successful harvest!</b></span><br>Your pay has increased by $0.02. Your bonus pay is now $0.32.</p>\n            ","response":0,"trial_type":"html-button-response","trial_index":94,"time_elapsed":284615,"internal_node_id":"0.0-4.0-1.41","subject_id":"60ca1c436511b9fc8ab35615","study_id":"6197b3f67c2b5cd3b6d9596a","session_id":"619be31d8809d17b621e9a0d","condition":"contingent","relevant_dimensions":["wings","legs"],"bee_group":{"antennae":"X","wings":"1","pattern":"X","legs":"M"},"bonus":0.1},{"rt":1046.5,"stimulus":"bees-with-color/bee-B1DF.svg","response":0,"trial_type":"image-button-response","trial_index":95,"time_elapsed":285663,"internal_node_id":"0.0-4.0-0.42","subject_id":"60ca1c436511b9fc8ab35615","study_id":"6197b3f67c2b5cd3b6d9596a","session_id":"619be31d8809d17b621e9a0d","condition":"contingent","relevant_dimensions":["wings","legs"],"bee_group":{"antennae":"X","wings":"1","pattern":"X","legs":"M"},"action":"harvest","summary":"good-harvest","bonus":0.1},{"rt":582.5,"stimulus":"\n                    <p><b>Action: <em>harvest</em></b></p>\n                    <p>This is the bee that you just saw.</p>\n                    <img src=\"bees-with-color/bee-B1DF.svg\" width=\"200\">\n                    <p><span class=\"greenText\"><b>Successful harvest!</b></span><br>Your pay has increased by $0.02. Your bonus pay is now $0.34.</p>\n            ","response":0,"trial_type":"html-button-response","trial_index":96,"time_elapsed":286247,"internal_node_id":"0.0-4.0-1.42","subject_id":"60ca1c436511b9fc8ab35615","study_id":"6197b3f67c2b5cd3b6d9596a","session_id":"619be31d8809d17b621e9a0d","condition":"contingent","relevant_dimensions":["wings","legs"],"bee_group":{"antennae":"X","wings":"1","pattern":"X","legs":"M"},"bonus":0.1},{"rt":1262.4000000953674,"stimulus":"bees-with-color/bee-B2DF.svg","response":0,"trial_type":"image-button-response","trial_index":97,"time_elapsed":287511,"internal_node_id":"0.0-4.0-0.43","subject_id":"60ca1c436511b9fc8ab35615","study_id":"6197b3f67c2b5cd3b6d9596a","session_id":"619be31d8809d17b621e9a0d","condition":"contingent","relevant_dimensions":["wings","legs"],"bee_group":{"antennae":"X","wings":"1","pattern":"X","legs":"M"},"action":"harvest","summary":"good-harvest","bonus":0.1},{"rt":598.3999999761581,"stimulus":"\n                    <p><b>Action: <em>harvest</em></b></p>\n                    <p>This is the bee that you just saw.</p>\n                    <img src=\"bees-with-color/bee-B2DF.svg\" width=\"200\">\n                    <p><span class=\"greenText\"><b>Successful harvest!</b></span><br>Your pay has increased by $0.02. Your bonus pay is now $0.36.</p>\n            ","response":0,"trial_type":"html-button-response","trial_index":98,"time_elapsed":288111,"internal_node_id":"0.0-4.0-1.43","subject_id":"60ca1c436511b9fc8ab35615","study_id":"6197b3f67c2b5cd3b6d9596a","session_id":"619be31d8809d17b621e9a0d","condition":"contingent","relevant_dimensions":["wings","legs"],"bee_group":{"antennae":"X","wings":"1","pattern":"X","legs":"M"},"bonus":0.1},{"rt":470.5,"stimulus":"bees-with-color/bee-B1SF.svg","response":1,"trial_type":"image-button-response","trial_index":99,"time_elapsed":288583,"internal_node_id":"0.0-4.0-0.44","subject_id":"60ca1c436511b9fc8ab35615","study_id":"6197b3f67c2b5cd3b6d9596a","session_id":"619be31d8809d17b621e9a0d","condition":"contingent","relevant_dimensions":["wings","legs"],"bee_group":{"antennae":"X","wings":"1","pattern":"X","legs":"M"},"action":"avoid","summary":"bad-avoid","bonus":0.1},{"rt":726.5,"stimulus":"\n                    <p><b>Action: <em>avoid</em></b></p>\n                    <p>This is the bee that you just saw.</p>\n                    <img src=\"bees-with-color/bee-B1SF.svg\" width=\"200\">\n                    <p><br>Your bonus pay is unchanged, and remains at $0.36.</p>\n            ","response":0,"trial_type":"html-button-response","trial_index":100,"time_elapsed":289311,"internal_node_id":"0.0-4.0-1.44","subject_id":"60ca1c436511b9fc8ab35615","study_id":"6197b3f67c2b5cd3b6d9596a","session_id":"619be31d8809d17b621e9a0d","condition":"contingent","relevant_dimensions":["wings","legs"],"bee_group":{"antennae":"X","wings":"1","pattern":"X","legs":"M"},"bonus":0.1},{"rt":574.7000000476837,"stimulus":"bees-with-color/bee-B1SM.svg","response":0,"trial_type":"image-button-response","trial_index":101,"time_elapsed":289887,"internal_node_id":"0.0-4.0-0.45","subject_id":"60ca1c436511b9fc8ab35615","study_id":"6197b3f67c2b5cd3b6d9596a","session_id":"619be31d8809d17b621e9a0d","condition":"contingent","relevant_dimensions":["wings","legs"],"bee_group":{"antennae":"X","wings":"1","pattern":"X","legs":"M"},"action":"harvest","summary":"bad-harvest","bonus":0.1},{"rt":742.7999999523163,"stimulus":"\n                    <p><b>Action: <em>harvest</em></b></p>\n                    <p>This is the bee that you just saw.</p>\n                    <img src=\"bees-with-color/bee-B1SM.svg\" width=\"200\">\n                    <p><span class=\"redText\">Bad choice, the bee was angry.</span><br><b>You have been stung!</b><br>Your pay has been decreased by $0.10. Your bonus pay is now $0.26.</p>\n            ","response":0,"trial_type":"html-button-response","trial_index":102,"time_elapsed":290631,"internal_node_id":"0.0-4.0-1.45","subject_id":"60ca1c436511b9fc8ab35615","study_id":"6197b3f67c2b5cd3b6d9596a","session_id":"619be31d8809d17b621e9a0d","condition":"contingent","relevant_dimensions":["wings","legs"],"bee_group":{"antennae":"X","wings":"1","pattern":"X","legs":"M"},"bonus":0.1},{"rt":814.2000000476837,"stimulus":"bees-with-color/bee-B1DM.svg","response":0,"trial_type":"image-button-response","trial_index":103,"time_elapsed":291447,"internal_node_id":"0.0-4.0-0.46","subject_id":"60ca1c436511b9fc8ab35615","study_id":"6197b3f67c2b5cd3b6d9596a","session_id":"619be31d8809d17b621e9a0d","condition":"contingent","relevant_dimensions":["wings","legs"],"bee_group":{"antennae":"X","wings":"1","pattern":"X","legs":"M"},"action":"harvest","summary":"bad-harvest","bonus":0.1},{"rt":646.4000000953674,"stimulus":"\n                    <p><b>Action: <em>harvest</em></b></p>\n                    <p>This is the bee that you just saw.</p>\n                    <img src=\"bees-with-color/bee-B1DM.svg\" width=\"200\">\n                    <p><span class=\"redText\">Bad choice, the bee was angry.</span><br><b>You have been stung!</b><br>Your pay has been decreased by $0.10. Your bonus pay is now $0.16.</p>\n            ","response":0,"trial_type":"html-button-response","trial_index":104,"time_elapsed":292095,"internal_node_id":"0.0-4.0-1.46","subject_id":"60ca1c436511b9fc8ab35615","study_id":"6197b3f67c2b5cd3b6d9596a","session_id":"619be31d8809d17b621e9a0d","condition":"contingent","relevant_dimensions":["wings","legs"],"bee_group":{"antennae":"X","wings":"1","pattern":"X","legs":"M"},"bonus":0.1},{"rt":1310.5,"stimulus":"bees-with-color/bee-A1DF.svg","response":0,"trial_type":"image-button-response","trial_index":105,"time_elapsed":293407,"internal_node_id":"0.0-4.0-0.47","subject_id":"60ca1c436511b9fc8ab35615","study_id":"6197b3f67c2b5cd3b6d9596a","session_id":"619be31d8809d17b621e9a0d","condition":"contingent","relevant_dimensions":["wings","legs"],"bee_group":{"antennae":"X","wings":"1","pattern":"X","legs":"M"},"action":"harvest","summary":"good-harvest","bonus":0.1},{"rt":574.3000000715256,"stimulus":"\n                    <p><b>Action: <em>harvest</em></b></p>\n                    <p>This is the bee that you just saw.</p>\n                    <img src=\"bees-with-color/bee-A1DF.svg\" width=\"200\">\n                    <p><span class=\"greenText\"><b>Successful harvest!</b></span><br>Your pay has increased by $0.02. Your bonus pay is now $0.18.</p>\n            ","response":0,"trial_type":"html-button-response","trial_index":106,"time_elapsed":293983,"internal_node_id":"0.0-4.0-1.47","subject_id":"60ca1c436511b9fc8ab35615","study_id":"6197b3f67c2b5cd3b6d9596a","session_id":"619be31d8809d17b621e9a0d","condition":"contingent","relevant_dimensions":["wings","legs"],"bee_group":{"antennae":"X","wings":"1","pattern":"X","legs":"M"},"bonus":0.1},{"rt":750.5,"stimulus":"bees-with-color/bee-B2DF.svg","response":0,"trial_type":"image-button-response","trial_index":107,"time_elapsed":294735,"internal_node_id":"0.0-4.0-0.48","subject_id":"60ca1c436511b9fc8ab35615","study_id":"6197b3f67c2b5cd3b6d9596a","session_id":"619be31d8809d17b621e9a0d","condition":"contingent","relevant_dimensions":["wings","legs"],"bee_group":{"antennae":"X","wings":"1","pattern":"X","legs":"M"},"action":"harvest","summary":"good-harvest","bonus":0.1},{"rt":622.3999999761581,"stimulus":"\n                    <p><b>Action: <em>harvest</em></b></p>\n                    <p>This is the bee that you just saw.</p>\n                    <img src=\"bees-with-color/bee-B2DF.svg\" width=\"200\">\n                    <p><span class=\"greenText\"><b>Successful harvest!</b></span><br>Your pay has increased by $0.02. Your bonus pay is now $0.20.</p>\n            ","response":0,"trial_type":"html-button-response","trial_index":108,"time_elapsed":295359,"internal_node_id":"0.0-4.0-1.48","subject_id":"60ca1c436511b9fc8ab35615","study_id":"6197b3f67c2b5cd3b6d9596a","session_id":"619be31d8809d17b621e9a0d","condition":"contingent","relevant_dimensions":["wings","legs"],"bee_group":{"antennae":"X","wings":"1","pattern":"X","legs":"M"},"bonus":0.1},{"rt":926.8000000715256,"stimulus":"bees-with-color/bee-B1DM.svg","response":0,"trial_type":"image-button-response","trial_index":109,"time_elapsed":296287,"internal_node_id":"0.0-4.0-0.49","subject_id":"60ca1c436511b9fc8ab35615","study_id":"6197b3f67c2b5cd3b6d9596a","session_id":"619be31d8809d17b621e9a0d","condition":"contingent","relevant_dimensions":["wings","legs"],"bee_group":{"antennae":"X","wings":"1","pattern":"X","legs":"M"},"action":"harvest","summary":"bad-harvest","bonus":0.1},{"rt":742.3999999761581,"stimulus":"\n                    <p><b>Action: <em>harvest</em></b></p>\n                    <p>This is the bee that you just saw.</p>\n                    <img src=\"bees-with-color/bee-B1DM.svg\" width=\"200\">\n                    <p><span class=\"redText\">Bad choice, the bee was angry.</span><br><b>You have been stung!</b><br>Your pay has been decreased by $0.10. Your bonus pay is now $0.10.</p>\n            ","response":0,"trial_type":"html-button-response","trial_index":110,"time_elapsed":297031,"internal_node_id":"0.0-4.0-1.49","subject_id":"60ca1c436511b9fc8ab35615","study_id":"6197b3f67c2b5cd3b6d9596a","session_id":"619be31d8809d17b621e9a0d","condition":"contingent","relevant_dimensions":["wings","legs"],"bee_group":{"antennae":"X","wings":"1","pattern":"X","legs":"M"},"bonus":0.1},{"rt":726.6000000238419,"stimulus":"bees-with-color/bee-A1DF.svg","response":0,"trial_type":"image-button-response","trial_index":111,"time_elapsed":297759,"internal_node_id":"0.0-4.0-0.50","subject_id":"60ca1c436511b9fc8ab35615","study_id":"6197b3f67c2b5cd3b6d9596a","session_id":"619be31d8809d17b621e9a0d","condition":"contingent","relevant_dimensions":["wings","legs"],"bee_group":{"antennae":"X","wings":"1","pattern":"X","legs":"M"},"action":"harvest","summary":"good-harvest","bonus":0.1},{"rt":694.5,"stimulus":"\n                    <p><b>Action: <em>harvest</em></b></p>\n                    <p>This is the bee that you just saw.</p>\n                    <img src=\"bees-with-color/bee-A1DF.svg\" width=\"200\">\n                    <p><span class=\"greenText\"><b>Successful harvest!</b></span><br>Your pay has increased by $0.02. Your bonus pay is now $0.12.</p>\n            ","response":0,"trial_type":"html-button-response","trial_index":112,"time_elapsed":298455,"internal_node_id":"0.0-4.0-1.50","subject_id":"60ca1c436511b9fc8ab35615","study_id":"6197b3f67c2b5cd3b6d9596a","session_id":"619be31d8809d17b621e9a0d","condition":"contingent","relevant_dimensions":["wings","legs"],"bee_group":{"antennae":"X","wings":"1","pattern":"X","legs":"M"},"bonus":0.1},{"rt":1118.6000000238419,"stimulus":"bees-with-color/bee-A2DF.svg","response":0,"trial_type":"image-button-response","trial_index":113,"time_elapsed":299575,"internal_node_id":"0.0-4.0-0.51","subject_id":"60ca1c436511b9fc8ab35615","study_id":"6197b3f67c2b5cd3b6d9596a","session_id":"619be31d8809d17b621e9a0d","condition":"contingent","relevant_dimensions":["wings","legs"],"bee_group":{"antennae":"X","wings":"1","pattern":"X","legs":"M"},"action":"harvest","summary":"good-harvest","bonus":0.1},{"rt":558.4000000953674,"stimulus":"\n                    <p><b>Action: <em>harvest</em></b></p>\n                    <p>This is the bee that you just saw.</p>\n                    <img src=\"bees-with-color/bee-A2DF.svg\" width=\"200\">\n                    <p><span class=\"greenText\"><b>Successful harvest!</b></span><br>Your pay has increased by $0.02. Your bonus pay is now $0.14.</p>\n            ","response":0,"trial_type":"html-button-response","trial_index":114,"time_elapsed":300135,"internal_node_id":"0.0-4.0-1.51","subject_id":"60ca1c436511b9fc8ab35615","study_id":"6197b3f67c2b5cd3b6d9596a","session_id":"619be31d8809d17b621e9a0d","condition":"contingent","relevant_dimensions":["wings","legs"],"bee_group":{"antennae":"X","wings":"1","pattern":"X","legs":"M"},"bonus":0.1},{"rt":758.5,"stimulus":"bees-with-color/bee-B1DF.svg","response":0,"trial_type":"image-button-response","trial_index":115,"time_elapsed":300895,"internal_node_id":"0.0-4.0-0.52","subject_id":"60ca1c436511b9fc8ab35615","study_id":"6197b3f67c2b5cd3b6d9596a","session_id":"619be31d8809d17b621e9a0d","condition":"contingent","relevant_dimensions":["wings","legs"],"bee_group":{"antennae":"X","wings":"1","pattern":"X","legs":"M"},"action":"harvest","summary":"good-harvest","bonus":0.1},{"rt":638.2000000476837,"stimulus":"\n                    <p><b>Action: <em>harvest</em></b></p>\n                    <p>This is the bee that you just saw.</p>\n                    <img src=\"bees-with-color/bee-B1DF.svg\" width=\"200\">\n                    <p><span class=\"greenText\"><b>Successful harvest!</b></span><br>Your pay has increased by $0.02. Your bonus pay is now $0.16.</p>\n            ","response":0,"trial_type":"html-button-response","trial_index":116,"time_elapsed":301535,"internal_node_id":"0.0-4.0-1.52","subject_id":"60ca1c436511b9fc8ab35615","study_id":"6197b3f67c2b5cd3b6d9596a","session_id":"619be31d8809d17b621e9a0d","condition":"contingent","relevant_dimensions":["wings","legs"],"bee_group":{"antennae":"X","wings":"1","pattern":"X","legs":"M"},"bonus":0.1},{"rt":1278.7000000476837,"stimulus":"bees-with-color/bee-A2SF.svg","response":0,"trial_type":"image-button-response","trial_index":117,"time_elapsed":302815,"internal_node_id":"0.0-4.0-0.53","subject_id":"60ca1c436511b9fc8ab35615","study_id":"6197b3f67c2b5cd3b6d9596a","session_id":"619be31d8809d17b621e9a0d","condition":"contingent","relevant_dimensions":["wings","legs"],"bee_group":{"antennae":"X","wings":"1","pattern":"X","legs":"M"},"action":"harvest","summary":"good-harvest","bonus":0.1},{"rt":678.6000000238419,"stimulus":"\n                    <p><b>Action: <em>harvest</em></b></p>\n                    <p>This is the bee that you just saw.</p>\n                    <img src=\"bees-with-color/bee-A2SF.svg\" width=\"200\">\n                    <p><span class=\"greenText\"><b>Successful harvest!</b></span><br>Your pay has increased by $0.02. Your bonus pay is now $0.18.</p>\n            ","response":0,"trial_type":"html-button-response","trial_index":118,"time_elapsed":303495,"internal_node_id":"0.0-4.0-1.53","subject_id":"60ca1c436511b9fc8ab35615","study_id":"6197b3f67c2b5cd3b6d9596a","session_id":"619be31d8809d17b621e9a0d","condition":"contingent","relevant_dimensions":["wings","legs"],"bee_group":{"antennae":"X","wings":"1","pattern":"X","legs":"M"},"bonus":0.1},{"rt":1462.7000000476837,"stimulus":"bees-with-color/bee-B1SM.svg","response":0,"trial_type":"image-button-response","trial_index":119,"time_elapsed":304959,"internal_node_id":"0.0-4.0-0.54","subject_id":"60ca1c436511b9fc8ab35615","study_id":"6197b3f67c2b5cd3b6d9596a","session_id":"619be31d8809d17b621e9a0d","condition":"contingent","relevant_dimensions":["wings","legs"],"bee_group":{"antennae":"X","wings":"1","pattern":"X","legs":"M"},"action":"harvest","summary":"bad-harvest","bonus":0.1},{"rt":622.6000000238419,"stimulus":"\n                    <p><b>Action: <em>harvest</em></b></p>\n                    <p>This is the bee that you just saw.</p>\n                    <img src=\"bees-with-color/bee-B1SM.svg\" width=\"200\">\n                    <p><span class=\"redText\">Bad choice, the bee was angry.</span><br><b>You have been stung!</b><br>Your pay has been decreased by $0.10. Your bonus pay is now $0.08.</p>\n            ","response":0,"trial_type":"html-button-response","trial_index":120,"time_elapsed":305583,"internal_node_id":"0.0-4.0-1.54","subject_id":"60ca1c436511b9fc8ab35615","study_id":"6197b3f67c2b5cd3b6d9596a","session_id":"619be31d8809d17b621e9a0d","condition":"contingent","relevant_dimensions":["wings","legs"],"bee_group":{"antennae":"X","wings":"1","pattern":"X","legs":"M"},"bonus":0.1},{"rt":1039,"stimulus":"bees-with-color/bee-B2SF.svg","response":0,"trial_type":"image-button-response","trial_index":121,"time_elapsed":306623,"internal_node_id":"0.0-4.0-0.55","subject_id":"60ca1c436511b9fc8ab35615","study_id":"6197b3f67c2b5cd3b6d9596a","session_id":"619be31d8809d17b621e9a0d","condition":"contingent","relevant_dimensions":["wings","legs"],"bee_group":{"antennae":"X","wings":"1","pattern":"X","legs":"M"},"action":"harvest","summary":"good-harvest","bonus":0.1},{"rt":590.7000000476837,"stimulus":"\n                    <p><b>Action: <em>harvest</em></b></p>\n                    <p>This is the bee that you just saw.</p>\n                    <img src=\"bees-with-color/bee-B2SF.svg\" width=\"200\">\n                    <p><span class=\"greenText\"><b>Successful harvest!</b></span><br>Your pay has increased by $0.02. Your bonus pay is now $0.10.</p>\n            ","response":0,"trial_type":"html-button-response","trial_index":122,"time_elapsed":307215,"internal_node_id":"0.0-4.0-1.55","subject_id":"60ca1c436511b9fc8ab35615","study_id":"6197b3f67c2b5cd3b6d9596a","session_id":"619be31d8809d17b621e9a0d","condition":"contingent","relevant_dimensions":["wings","legs"],"bee_group":{"antennae":"X","wings":"1","pattern":"X","legs":"M"},"bonus":0.1},{"rt":1046.8000000715256,"stimulus":"bees-with-color/bee-A1SM.svg","response":0,"trial_type":"image-button-response","trial_index":123,"time_elapsed":308263,"internal_node_id":"0.0-4.0-0.56","subject_id":"60ca1c436511b9fc8ab35615","study_id":"6197b3f67c2b5cd3b6d9596a","session_id":"619be31d8809d17b621e9a0d","condition":"contingent","relevant_dimensions":["wings","legs"],"bee_group":{"antennae":"X","wings":"1","pattern":"X","legs":"M"},"action":"harvest","summary":"bad-harvest","bonus":0.1},{"rt":1030.7000000476837,"stimulus":"\n                    <p><b>Action: <em>harvest</em></b></p>\n                    <p>This is the bee that you just saw.</p>\n                    <img src=\"bees-with-color/bee-A1SM.svg\" width=\"200\">\n                    <p><span class=\"redText\">Bad choice, the bee was angry.</span><br><b>You have been stung!</b><br>Your pay has been decreased by $0.10. Your bonus pay is now $0.00.</p>\n            ","response":0,"trial_type":"html-button-response","trial_index":124,"time_elapsed":309295,"internal_node_id":"0.0-4.0-1.56","subject_id":"60ca1c436511b9fc8ab35615","study_id":"6197b3f67c2b5cd3b6d9596a","session_id":"619be31d8809d17b621e9a0d","condition":"contingent","relevant_dimensions":["wings","legs"],"bee_group":{"antennae":"X","wings":"1","pattern":"X","legs":"M"},"bonus":0.1},{"rt":1166.7000000476837,"stimulus":"bees-with-color/bee-B2SM.svg","response":0,"trial_type":"image-button-response","trial_index":125,"time_elapsed":310463,"internal_node_id":"0.0-4.0-0.57","subject_id":"60ca1c436511b9fc8ab35615","study_id":"6197b3f67c2b5cd3b6d9596a","session_id":"619be31d8809d17b621e9a0d","condition":"contingent","relevant_dimensions":["wings","legs"],"bee_group":{"antennae":"X","wings":"1","pattern":"X","legs":"M"},"action":"harvest","summary":"good-harvest","bonus":0.1},{"rt":774.6000000238419,"stimulus":"\n                    <p><b>Action: <em>harvest</em></b></p>\n                    <p>This is the bee that you just saw.</p>\n                    <img src=\"bees-with-color/bee-B2SM.svg\" width=\"200\">\n                    <p><span class=\"greenText\"><b>Successful harvest!</b></span><br>Your pay has increased by $0.02. Your bonus pay is now $0.02.</p>\n            ","response":0,"trial_type":"html-button-response","trial_index":126,"time_elapsed":311239,"internal_node_id":"0.0-4.0-1.57","subject_id":"60ca1c436511b9fc8ab35615","study_id":"6197b3f67c2b5cd3b6d9596a","session_id":"619be31d8809d17b621e9a0d","condition":"contingent","relevant_dimensions":["wings","legs"],"bee_group":{"antennae":"X","wings":"1","pattern":"X","legs":"M"},"bonus":0.1},{"rt":1030.7000000476837,"stimulus":"bees-with-color/bee-A2SM.svg","response":0,"trial_type":"image-button-response","trial_index":127,"time_elapsed":312271,"internal_node_id":"0.0-4.0-0.58","subject_id":"60ca1c436511b9fc8ab35615","study_id":"6197b3f67c2b5cd3b6d9596a","session_id":"619be31d8809d17b621e9a0d","condition":"contingent","relevant_dimensions":["wings","legs"],"bee_group":{"antennae":"X","wings":"1","pattern":"X","legs":"M"},"action":"harvest","summary":"good-harvest","bonus":0.1},{"rt":494.60000002384186,"stimulus":"\n                    <p><b>Action: <em>harvest</em></b></p>\n                    <p>This is the bee that you just saw.</p>\n                    <img src=\"bees-with-color/bee-A2SM.svg\" width=\"200\">\n                    <p><span class=\"greenText\"><b>Successful harvest!</b></span><br>Your pay has increased by $0.02. Your bonus pay is now $0.04.</p>\n            ","response":0,"trial_type":"html-button-response","trial_index":128,"time_elapsed":312767,"internal_node_id":"0.0-4.0-1.58","subject_id":"60ca1c436511b9fc8ab35615","study_id":"6197b3f67c2b5cd3b6d9596a","session_id":"619be31d8809d17b621e9a0d","condition":"contingent","relevant_dimensions":["wings","legs"],"bee_group":{"antennae":"X","wings":"1","pattern":"X","legs":"M"},"bonus":0.1},{"rt":1070.6000000238419,"stimulus":"bees-with-color/bee-B1SF.svg","response":1,"trial_type":"image-button-response","trial_index":129,"time_elapsed":313839,"internal_node_id":"0.0-4.0-0.59","subject_id":"60ca1c436511b9fc8ab35615","study_id":"6197b3f67c2b5cd3b6d9596a","session_id":"619be31d8809d17b621e9a0d","condition":"contingent","relevant_dimensions":["wings","legs"],"bee_group":{"antennae":"X","wings":"1","pattern":"X","legs":"M"},"action":"avoid","summary":"bad-avoid","bonus":0.1},{"rt":606.7000000476837,"stimulus":"\n                    <p><b>Action: <em>avoid</em></b></p>\n                    <p>This is the bee that you just saw.</p>\n                    <img src=\"bees-with-color/bee-B1SF.svg\" width=\"200\">\n                    <p><br>Your bonus pay is unchanged, and remains at $0.04.</p>\n            ","response":0,"trial_type":"html-button-response","trial_index":130,"time_elapsed":314447,"internal_node_id":"0.0-4.0-1.59","subject_id":"60ca1c436511b9fc8ab35615","study_id":"6197b3f67c2b5cd3b6d9596a","session_id":"619be31d8809d17b621e9a0d","condition":"contingent","relevant_dimensions":["wings","legs"],"bee_group":{"antennae":"X","wings":"1","pattern":"X","legs":"M"},"bonus":0.1},{"rt":582.7000000476837,"stimulus":"bees-with-color/bee-A1DM.svg","response":0,"trial_type":"image-button-response","trial_index":131,"time_elapsed":315031,"internal_node_id":"0.0-4.0-0.60","subject_id":"60ca1c436511b9fc8ab35615","study_id":"6197b3f67c2b5cd3b6d9596a","session_id":"619be31d8809d17b621e9a0d","condition":"contingent","relevant_dimensions":["wings","legs"],"bee_group":{"antennae":"X","wings":"1","pattern":"X","legs":"M"},"action":"harvest","summary":"bad-harvest","bonus":0.1},{"rt":686.3999999761581,"stimulus":"\n                    <p><b>Action: <em>harvest</em></b></p>\n                    <p>This is the bee that you just saw.</p>\n                    <img src=\"bees-with-color/bee-A1DM.svg\" width=\"200\">\n                    <p><span class=\"redText\">Bad choice, the bee was angry.</span><br><b>You have been stung!</b><br>Your pay has been decreased by $0.10. Your bonus pay is now $0.00.</p>\n            ","response":0,"trial_type":"html-button-response","trial_index":132,"time_elapsed":315719,"internal_node_id":"0.0-4.0-1.60","subject_id":"60ca1c436511b9fc8ab35615","study_id":"6197b3f67c2b5cd3b6d9596a","session_id":"619be31d8809d17b621e9a0d","condition":"contingent","relevant_dimensions":["wings","legs"],"bee_group":{"antennae":"X","wings":"1","pattern":"X","legs":"M"},"bonus":0.1},{"rt":950.5,"stimulus":"bees-with-color/bee-A2DM.svg","response":1,"trial_type":"image-button-response","trial_index":133,"time_elapsed":316671,"internal_node_id":"0.0-4.0-0.61","subject_id":"60ca1c436511b9fc8ab35615","study_id":"6197b3f67c2b5cd3b6d9596a","session_id":"619be31d8809d17b621e9a0d","condition":"contingent","relevant_dimensions":["wings","legs"],"bee_group":{"antennae":"X","wings":"1","pattern":"X","legs":"M"},"action":"avoid","summary":"bad-avoid","bonus":0.1},{"rt":598.3000000715256,"stimulus":"\n                    <p><b>Action: <em>avoid</em></b></p>\n                    <p>This is the bee that you just saw.</p>\n                    <img src=\"bees-with-color/bee-A2DM.svg\" width=\"200\">\n                    <p><br>Your bonus pay is unchanged, and remains at $0.00.</p>\n            ","response":0,"trial_type":"html-button-response","trial_index":134,"time_elapsed":317271,"internal_node_id":"0.0-4.0-1.61","subject_id":"60ca1c436511b9fc8ab35615","study_id":"6197b3f67c2b5cd3b6d9596a","session_id":"619be31d8809d17b621e9a0d","condition":"contingent","relevant_dimensions":["wings","legs"],"bee_group":{"antennae":"X","wings":"1","pattern":"X","legs":"M"},"bonus":0.1},{"rt":822.6000000238419,"stimulus":"bees-with-color/bee-A1SF.svg","response":0,"trial_type":"image-button-response","trial_index":135,"time_elapsed":318095,"internal_node_id":"0.0-4.0-0.62","subject_id":"60ca1c436511b9fc8ab35615","study_id":"6197b3f67c2b5cd3b6d9596a","session_id":"619be31d8809d17b621e9a0d","condition":"contingent","relevant_dimensions":["wings","legs"],"bee_group":{"antennae":"X","wings":"1","pattern":"X","legs":"M"},"action":"harvest","summary":"good-harvest","bonus":0.1},{"rt":502.7000000476837,"stimulus":"\n                    <p><b>Action: <em>harvest</em></b></p>\n                    <p>This is the bee that you just saw.</p>\n                    <img src=\"bees-with-color/bee-A1SF.svg\" width=\"200\">\n                    <p><span class=\"greenText\"><b>Successful harvest!</b></span><br>Your pay has increased by $0.02. Your bonus pay is now $0.02.</p>\n            ","response":0,"trial_type":"html-button-response","trial_index":136,"time_elapsed":318599,"internal_node_id":"0.0-4.0-1.62","subject_id":"60ca1c436511b9fc8ab35615","study_id":"6197b3f67c2b5cd3b6d9596a","session_id":"619be31d8809d17b621e9a0d","condition":"contingent","relevant_dimensions":["wings","legs"],"bee_group":{"antennae":"X","wings":"1","pattern":"X","legs":"M"},"bonus":0.1},{"rt":774.6000000238419,"stimulus":"bees-with-color/bee-B2DM.svg","response":0,"trial_type":"image-button-response","trial_index":137,"time_elapsed":319375,"internal_node_id":"0.0-4.0-0.63","subject_id":"60ca1c436511b9fc8ab35615","study_id":"6197b3f67c2b5cd3b6d9596a","session_id":"619be31d8809d17b621e9a0d","condition":"contingent","relevant_dimensions":["wings","legs"],"bee_group":{"antennae":"X","wings":"1","pattern":"X","legs":"M"},"action":"harvest","summary":"good-harvest","bonus":0.1},{"rt":502.5,"stimulus":"\n                    <p><b>Action: <em>harvest</em></b></p>\n                    <p>This is the bee that you just saw.</p>\n                    <img src=\"bees-with-color/bee-B2DM.svg\" width=\"200\">\n                    <p><span class=\"greenText\"><b>Successful harvest!</b></span><br>Your pay has increased by $0.02. Your bonus pay is now $0.04.</p>\n            ","response":0,"trial_type":"html-button-response","trial_index":138,"time_elapsed":319879,"internal_node_id":"0.0-4.0-1.63","subject_id":"60ca1c436511b9fc8ab35615","study_id":"6197b3f67c2b5cd3b6d9596a","session_id":"619be31d8809d17b621e9a0d","condition":"contingent","relevant_dimensions":["wings","legs"],"bee_group":{"antennae":"X","wings":"1","pattern":"X","legs":"M"},"bonus":0.1},{"rt":6841.300000071526,"stimulus":"You have completed the first part of this experiment.<br><br>You will now begin a shorter second part, in which you will receive no feedback.<br>The same rules regarding bonus pay apply.<br><br>Press any key to begin.","response":" ","trial_type":"html-keyboard-response","trial_index":139,"time_elapsed":326721,"internal_node_id":"0.0-5.0","subject_id":"60ca1c436511b9fc8ab35615","study_id":"6197b3f67c2b5cd3b6d9596a","session_id":"619be31d8809d17b621e9a0d","condition":"contingent","relevant_dimensions":["wings","legs"],"bee_group":{"antennae":"X","wings":"1","pattern":"X","legs":"M"},"bonus":0.1},{"rt":2120.8000000715256,"stimulus":"bees-with-color/bee-A1SF.svg","response":0,"trial_type":"image-button-response","trial_index":140,"time_elapsed":328855,"internal_node_id":"0.0-6.0-0.0","subject_id":"60ca1c436511b9fc8ab35615","study_id":"6197b3f67c2b5cd3b6d9596a","session_id":"619be31d8809d17b621e9a0d","condition":"contingent","relevant_dimensions":["wings","legs"],"bee_group":{"antennae":"X","wings":"1","pattern":"X","legs":"M"},"bonus":0.1},{"rt":2053.5,"stimulus":"bees-with-color/bee-B2SM.svg","response":0,"trial_type":"image-button-response","trial_index":141,"time_elapsed":330911,"internal_node_id":"0.0-6.0-0.1","subject_id":"60ca1c436511b9fc8ab35615","study_id":"6197b3f67c2b5cd3b6d9596a","session_id":"619be31d8809d17b621e9a0d","condition":"contingent","relevant_dimensions":["wings","legs"],"bee_group":{"antennae":"X","wings":"1","pattern":"X","legs":"M"},"bonus":0.1},{"rt":901.7000000476837,"stimulus":"bees-with-color/bee-A2SM.svg","response":1,"trial_type":"image-button-response","trial_index":142,"time_elapsed":331815,"internal_node_id":"0.0-6.0-0.2","subject_id":"60ca1c436511b9fc8ab35615","study_id":"6197b3f67c2b5cd3b6d9596a","session_id":"619be31d8809d17b621e9a0d","condition":"contingent","relevant_dimensions":["wings","legs"],"bee_group":{"antennae":"X","wings":"1","pattern":"X","legs":"M"},"bonus":0.1},{"rt":1197.9000000953674,"stimulus":"bees-with-color/bee-B1SM.svg","response":0,"trial_type":"image-button-response","trial_index":143,"time_elapsed":333015,"internal_node_id":"0.0-6.0-0.3","subject_id":"60ca1c436511b9fc8ab35615","study_id":"6197b3f67c2b5cd3b6d9596a","session_id":"619be31d8809d17b621e9a0d","condition":"contingent","relevant_dimensions":["wings","legs"],"bee_group":{"antennae":"X","wings":"1","pattern":"X","legs":"M"},"bonus":0.1},{"rt":917.8000000715256,"stimulus":"bees-with-color/bee-B2DF.svg","response":0,"trial_type":"image-button-response","trial_index":144,"time_elapsed":333935,"internal_node_id":"0.0-6.0-0.4","subject_id":"60ca1c436511b9fc8ab35615","study_id":"6197b3f67c2b5cd3b6d9596a","session_id":"619be31d8809d17b621e9a0d","condition":"contingent","relevant_dimensions":["wings","legs"],"bee_group":{"antennae":"X","wings":"1","pattern":"X","legs":"M"},"bonus":0.1},{"rt":1997.6000000238419,"stimulus":"bees-with-color/bee-A2DM.svg","response":1,"trial_type":"image-button-response","trial_index":145,"time_elapsed":335935,"internal_node_id":"0.0-6.0-0.5","subject_id":"60ca1c436511b9fc8ab35615","study_id":"6197b3f67c2b5cd3b6d9596a","session_id":"619be31d8809d17b621e9a0d","condition":"contingent","relevant_dimensions":["wings","legs"],"bee_group":{"antennae":"X","wings":"1","pattern":"X","legs":"M"},"bonus":0.1},{"rt":781.6000000238419,"stimulus":"bees-with-color/bee-B2SF.svg","response":0,"trial_type":"image-button-response","trial_index":146,"time_elapsed":336719,"internal_node_id":"0.0-6.0-0.6","subject_id":"60ca1c436511b9fc8ab35615","study_id":"6197b3f67c2b5cd3b6d9596a","session_id":"619be31d8809d17b621e9a0d","condition":"contingent","relevant_dimensions":["wings","legs"],"bee_group":{"antennae":"X","wings":"1","pattern":"X","legs":"M"},"bonus":0.1},{"rt":1373.7000000476837,"stimulus":"bees-with-color/bee-B1DM.svg","response":0,"trial_type":"image-button-response","trial_index":147,"time_elapsed":338095,"internal_node_id":"0.0-6.0-0.7","subject_id":"60ca1c436511b9fc8ab35615","study_id":"6197b3f67c2b5cd3b6d9596a","session_id":"619be31d8809d17b621e9a0d","condition":"contingent","relevant_dimensions":["wings","legs"],"bee_group":{"antennae":"X","wings":"1","pattern":"X","legs":"M"},"bonus":0.1},{"rt":637.8000000715256,"stimulus":"bees-with-color/bee-A2DF.svg","response":0,"trial_type":"image-button-response","trial_index":148,"time_elapsed":338735,"internal_node_id":"0.0-6.0-0.8","subject_id":"60ca1c436511b9fc8ab35615","study_id":"6197b3f67c2b5cd3b6d9596a","session_id":"619be31d8809d17b621e9a0d","condition":"contingent","relevant_dimensions":["wings","legs"],"bee_group":{"antennae":"X","wings":"1","pattern":"X","legs":"M"},"bonus":0.1},{"rt":869.9000000953674,"stimulus":"bees-with-color/bee-A1DM.svg","response":1,"trial_type":"image-button-response","trial_index":149,"time_elapsed":339607,"internal_node_id":"0.0-6.0-0.9","subject_id":"60ca1c436511b9fc8ab35615","study_id":"6197b3f67c2b5cd3b6d9596a","session_id":"619be31d8809d17b621e9a0d","condition":"contingent","relevant_dimensions":["wings","legs"],"bee_group":{"antennae":"X","wings":"1","pattern":"X","legs":"M"},"bonus":0.1},{"rt":1125.8999999761581,"stimulus":"bees-with-color/bee-B2DM.svg","response":0,"trial_type":"image-button-response","trial_index":150,"time_elapsed":340735,"internal_node_id":"0.0-6.0-0.10","subject_id":"60ca1c436511b9fc8ab35615","study_id":"6197b3f67c2b5cd3b6d9596a","session_id":"619be31d8809d17b621e9a0d","condition":"contingent","relevant_dimensions":["wings","legs"],"bee_group":{"antennae":"X","wings":"1","pattern":"X","legs":"M"},"bonus":0.1},{"rt":1445.8999999761581,"stimulus":"bees-with-color/bee-A1SM.svg","response":1,"trial_type":"image-button-response","trial_index":151,"time_elapsed":342183,"internal_node_id":"0.0-6.0-0.11","subject_id":"60ca1c436511b9fc8ab35615","study_id":"6197b3f67c2b5cd3b6d9596a","session_id":"619be31d8809d17b621e9a0d","condition":"contingent","relevant_dimensions":["wings","legs"],"bee_group":{"antennae":"X","wings":"1","pattern":"X","legs":"M"},"bonus":0.1},{"rt":1110,"stimulus":"bees-with-color/bee-A2SF.svg","response":0,"trial_type":"image-button-response","trial_index":152,"time_elapsed":343295,"internal_node_id":"0.0-6.0-0.12","subject_id":"60ca1c436511b9fc8ab35615","study_id":"6197b3f67c2b5cd3b6d9596a","session_id":"619be31d8809d17b621e9a0d","condition":"contingent","relevant_dimensions":["wings","legs"],"bee_group":{"antennae":"X","wings":"1","pattern":"X","legs":"M"},"bonus":0.1},{"rt":926.1999999284744,"stimulus":"bees-with-color/bee-A1DF.svg","response":0,"trial_type":"image-button-response","trial_index":153,"time_elapsed":344223,"internal_node_id":"0.0-6.0-0.13","subject_id":"60ca1c436511b9fc8ab35615","study_id":"6197b3f67c2b5cd3b6d9596a","session_id":"619be31d8809d17b621e9a0d","condition":"contingent","relevant_dimensions":["wings","legs"],"bee_group":{"antennae":"X","wings":"1","pattern":"X","legs":"M"},"bonus":0.1},{"rt":533.8999999761581,"stimulus":"bees-with-color/bee-B1DF.svg","response":0,"trial_type":"image-button-response","trial_index":154,"time_elapsed":344759,"internal_node_id":"0.0-6.0-0.14","subject_id":"60ca1c436511b9fc8ab35615","study_id":"6197b3f67c2b5cd3b6d9596a","session_id":"619be31d8809d17b621e9a0d","condition":"contingent","relevant_dimensions":["wings","legs"],"bee_group":{"antennae":"X","wings":"1","pattern":"X","legs":"M"},"bonus":0.1},{"rt":822.1000000238419,"stimulus":"bees-with-color/bee-B1SF.svg","response":1,"trial_type":"image-button-response","trial_index":155,"time_elapsed":345583,"internal_node_id":"0.0-6.0-0.15","subject_id":"60ca1c436511b9fc8ab35615","study_id":"6197b3f67c2b5cd3b6d9596a","session_id":"619be31d8809d17b621e9a0d","condition":"contingent","relevant_dimensions":["wings","legs"],"bee_group":{"antennae":"X","wings":"1","pattern":"X","legs":"M"},"bonus":0.1},{"rt":878.3000000715256,"stimulus":"bees-with-color/bee-A2SF.svg","response":1,"trial_type":"image-button-response","trial_index":156,"time_elapsed":346463,"internal_node_id":"0.0-6.0-0.16","subject_id":"60ca1c436511b9fc8ab35615","study_id":"6197b3f67c2b5cd3b6d9596a","session_id":"619be31d8809d17b621e9a0d","condition":"contingent","relevant_dimensions":["wings","legs"],"bee_group":{"antennae":"X","wings":"1","pattern":"X","legs":"M"},"bonus":0.1},{"rt":1366.3999999761581,"stimulus":"bees-with-color/bee-A1DM.svg","response":0,"trial_type":"image-button-response","trial_index":157,"time_elapsed":347831,"internal_node_id":"0.0-6.0-0.17","subject_id":"60ca1c436511b9fc8ab35615","study_id":"6197b3f67c2b5cd3b6d9596a","session_id":"619be31d8809d17b621e9a0d","condition":"contingent","relevant_dimensions":["wings","legs"],"bee_group":{"antennae":"X","wings":"1","pattern":"X","legs":"M"},"bonus":0.1},{"rt":918.4000000953674,"stimulus":"bees-with-color/bee-B1SM.svg","response":1,"trial_type":"image-button-response","trial_index":158,"time_elapsed":348751,"internal_node_id":"0.0-6.0-0.18","subject_id":"60ca1c436511b9fc8ab35615","study_id":"6197b3f67c2b5cd3b6d9596a","session_id":"619be31d8809d17b621e9a0d","condition":"contingent","relevant_dimensions":["wings","legs"],"bee_group":{"antennae":"X","wings":"1","pattern":"X","legs":"M"},"bonus":0.1},{"rt":582.3999999761581,"stimulus":"bees-with-color/bee-B2DM.svg","response":0,"trial_type":"image-button-response","trial_index":159,"time_elapsed":349335,"internal_node_id":"0.0-6.0-0.19","subject_id":"60ca1c436511b9fc8ab35615","study_id":"6197b3f67c2b5cd3b6d9596a","session_id":"619be31d8809d17b621e9a0d","condition":"contingent","relevant_dimensions":["wings","legs"],"bee_group":{"antennae":"X","wings":"1","pattern":"X","legs":"M"},"bonus":0.1},{"rt":1110.1000000238419,"stimulus":"bees-with-color/bee-B2SF.svg","response":1,"trial_type":"image-button-response","trial_index":160,"time_elapsed":350447,"internal_node_id":"0.0-6.0-0.20","subject_id":"60ca1c436511b9fc8ab35615","study_id":"6197b3f67c2b5cd3b6d9596a","session_id":"619be31d8809d17b621e9a0d","condition":"contingent","relevant_dimensions":["wings","legs"],"bee_group":{"antennae":"X","wings":"1","pattern":"X","legs":"M"},"bonus":0.1},{"rt":694.3000000715256,"stimulus":"bees-with-color/bee-B1DF.svg","response":0,"trial_type":"image-button-response","trial_index":161,"time_elapsed":351143,"internal_node_id":"0.0-6.0-0.21","subject_id":"60ca1c436511b9fc8ab35615","study_id":"6197b3f67c2b5cd3b6d9596a","session_id":"619be31d8809d17b621e9a0d","condition":"contingent","relevant_dimensions":["wings","legs"],"bee_group":{"antennae":"X","wings":"1","pattern":"X","legs":"M"},"bonus":0.1},{"rt":534.2000000476837,"stimulus":"bees-with-color/bee-A1SF.svg","response":0,"trial_type":"image-button-response","trial_index":162,"time_elapsed":351678,"internal_node_id":"0.0-6.0-0.22","subject_id":"60ca1c436511b9fc8ab35615","study_id":"6197b3f67c2b5cd3b6d9596a","session_id":"619be31d8809d17b621e9a0d","condition":"contingent","relevant_dimensions":["wings","legs"],"bee_group":{"antennae":"X","wings":"1","pattern":"X","legs":"M"},"bonus":0.1},{"rt":1038.3999999761581,"stimulus":"bees-with-color/bee-A2SM.svg","response":1,"trial_type":"image-button-response","trial_index":163,"time_elapsed":352718,"internal_node_id":"0.0-6.0-0.23","subject_id":"60ca1c436511b9fc8ab35615","study_id":"6197b3f67c2b5cd3b6d9596a","session_id":"619be31d8809d17b621e9a0d","condition":"contingent","relevant_dimensions":["wings","legs"],"bee_group":{"antennae":"X","wings":"1","pattern":"X","legs":"M"},"bonus":0.1},{"rt":886.2000000476837,"stimulus":"bees-with-color/bee-B1DM.svg","response":0,"trial_type":"image-button-response","trial_index":164,"time_elapsed":353606,"internal_node_id":"0.0-6.0-0.24","subject_id":"60ca1c436511b9fc8ab35615","study_id":"6197b3f67c2b5cd3b6d9596a","session_id":"619be31d8809d17b621e9a0d","condition":"contingent","relevant_dimensions":["wings","legs"],"bee_group":{"antennae":"X","wings":"1","pattern":"X","legs":"M"},"bonus":0.1},{"rt":646.3000000715256,"stimulu