[{"success":true,"trial_type":"fullscreen","trial_index":0,"time_elapsed":21315,"internal_node_id":"0.0-0.0","subject_id":"5ef698a927c8ea38d5bcc192","study_id":"6197b3f67c2b5cd3b6d9596a","session_id":"619beefc9a3d9c4719aacb9a","condition":"contingent","relevant_dimensions":["pattern","legs"],"bee_group":{"antennae":"X","wings":"X","pattern":"D","legs":"F"},"bonus":1.320000000000001},{"success":true,"timeout":false,"failed_images":[],"failed_audio":[],"failed_video":[],"trial_type":"preload","trial_index":1,"time_elapsed":22966,"internal_node_id":"0.0-1.0","subject_id":"5ef698a927c8ea38d5bcc192","study_id":"6197b3f67c2b5cd3b6d9596a","session_id":"619beefc9a3d9c4719aacb9a","condition":"contingent","relevant_dimensions":["pattern","legs"],"bee_group":{"antennae":"X","wings":"X","pattern":"D","legs":"F"},"bonus":1.320000000000001},{"rt":1132.8000000715256,"stimulus":"Welcome! Press any key to begin.","response":" ","trial_type":"html-keyboard-response","trial_index":2,"time_elapsed":24101,"internal_node_id":"0.0-2.0","subject_id":"5ef698a927c8ea38d5bcc192","study_id":"6197b3f67c2b5cd3b6d9596a","session_id":"619beefc9a3d9c4719aacb9a","condition":"contingent","relevant_dimensions":["pattern","legs"],"bee_group":{"antennae":"X","wings":"X","pattern":"D","legs":"F"},"bonus":1.320000000000001},{"view_history":[{"page_index":0,"viewing_time":2130.2000000476837},{"page_index":1,"viewing_time":10264.299999952316},{"page_index":2,"viewing_time":5269},{"page_index":3,"viewing_time":13207.400000095367},{"page_index":4,"viewing_time":6334.299999952316},{"page_index":5,"viewing_time":4837.399999976158},{"page_index":6,"viewing_time":6441.300000071526},{"page_index":7,"viewing_time":4307.099999904633},{"page_index":8,"viewing_time":8250.200000047684},{"page_index":9,"viewing_time":5736},{"page_index":10,"viewing_time":1864},{"page_index":11,"viewing_time":5727.899999976158},{"page_index":12,"viewing_time":8024},{"page_index":13,"viewing_time":1008.1000000238419},{"page_index":14,"viewing_time":1319.8999999761581}],"rt":84721.5,"trial_type":"instructions","trial_index":3,"time_elapsed":108825,"internal_node_id":"0.0-3.0-0.0","subject_id":"5ef698a927c8ea38d5bcc192","study_id":"6197b3f67c2b5cd3b6d9596a","session_id":"619beefc9a3d9c4719aacb9a","condition":"contingent","relevant_dimensions":["pattern","legs"],"bee_group":{"antennae":"X","wings":"X","pattern":"D","legs":"F"},"bonus":1.320000000000001},{"rt":21019,"response":{"Q0":["Two or six legs","Stripes or spots on body","Single or double wings","Antennae or no antennae"]},"question_order":[0],"trial_type":"survey-multi-select","trial_index":4,"time_elapsed":129849,"internal_node_id":"0.0-3.0-1.0","subject_id":"5ef698a927c8ea38d5bcc192","study_id":"6197b3f67c2b5cd3b6d9596a","session_id":"619beefc9a3d9c4719aacb9a","condition":"contingent","relevant_dimensions":["pattern","legs"],"bee_group":{"antennae":"X","wings":"X","pattern":"D","legs":"F"},"correct":true,"bonus":1.320000000000001},{"rt":22201.5,"response":{"Q1":"No.","Q2":"Based on the four features of the bee.","Q3":"You do not learn if it was friendly or dangerous, and do not alter your bonus."},"question_order":[0,1,2],"trial_type":"survey-multi-choice","trial_index":5,"time_elapsed":152057,"internal_node_id":"0.0-3.0-2.0","subject_id":"5ef698a927c8ea38d5bcc192","study_id":"6197b3f67c2b5cd3b6d9596a","session_id":"619beefc9a3d9c4719aacb9a","condition":"contingent","relevant_dimensions":["pattern","legs"],"bee_group":{"antennae":"X","wings":"X","pattern":"D","legs":"F"},"correct":true,"bonus":1.320000000000001},{"rt":1936.6999999284744,"stimulus":"<p>Congrats, you got everything right<br>When you're ready, click the button below to continue to the experiment.</p>","response":0,"trial_type":"html-button-response","trial_index":6,"time_elapsed":154001,"internal_node_id":"0.0-3.0-3.0","subject_id":"5ef698a927c8ea38d5bcc192","study_id":"6197b3f67c2b5cd3b6d9596a","session_id":"619beefc9a3d9c4719aacb9a","condition":"contingent","relevant_dimensions":["pattern","legs"],"bee_group":{"antennae":"X","wings":"X","pattern":"D","legs":"F"},"bonus":1.320000000000001},{"rt":9747.700000047684,"stimulus":"bees-with-color/bee-A1SF.svg","response":0,"trial_type":"image-button-response","trial_index":7,"time_elapsed":163753,"internal_node_id":"0.0-4.0-0.0","subject_id":"5ef698a927c8ea38d5bcc192","study_id":"6197b3f67c2b5cd3b6d9596a","session_id":"619beefc9a3d9c4719aacb9a","condition":"contingent","relevant_dimensions":["pattern","legs"],"bee_group":{"antennae":"X","wings":"X","pattern":"D","legs":"F"},"action":"harvest","summary":"good-harvest","bonus":1.320000000000001},{"rt":10651.299999952316,"stimulus":"\n                    <p><b>Action: <em>harvest</em></b></p>\n                    <p>This is the bee that you just saw.</p>\n                    <img src=\"bees-with-color/bee-A1SF.svg\" width=\"200\">\n                    <p><span class=\"greenText\"><b>Successful harvest!</b></span><br>Your pay has increased by $0.02. Your bonus pay is now $0.56.</p>\n            ","response":0,"trial_type":"html-button-response","trial_index":8,"time_elapsed":174408,"internal_node_id":"0.0-4.0-1.0","subject_id":"5ef698a927c8ea38d5bcc192","study_id":"6197b3f67c2b5cd3b6d9596a","session_id":"619beefc9a3d9c4719aacb9a","condition":"contingent","relevant_dimensions":["pattern","legs"],"bee_group":{"antennae":"X","wings":"X","pattern":"D","legs":"F"},"bonus":1.320000000000001},{"rt":4164.699999928474,"stimulus":"bees-with-color/bee-B1DF.svg","response":0,"trial_type":"image-button-response","trial_index":9,"time_elapsed":178576,"internal_node_id":"0.0-4.0-0.1","subject_id":"5ef698a927c8ea38d5bcc192","study_id":"6197b3f67c2b5cd3b6d9596a","session_id":"619beefc9a3d9c4719aacb9a","condition":"contingent","relevant_dimensions":["pattern","legs"],"bee_group":{"antennae":"X","wings":"X","pattern":"D","legs":"F"},"action":"harvest","summary":"bad-harvest","bonus":1.320000000000001},{"rt":6685.299999952316,"stimulus":"\n                    <p><b>Action: <em>harvest</em></b></p>\n                    <p>This is the bee that you just saw.</p>\n                    <img src=\"bees-with-color/bee-B1DF.svg\" width=\"200\">\n                    <p><span class=\"redText\">Bad choice, the bee was angry.</span><br><b>You have been stung!</b><br>Your pay has been decreased by $0.10. Your bonus pay is now $0.46.</p>\n            ","response":0,"trial_type":"html-button-response","trial_index":10,"time_elapsed":185264,"internal_node_id":"0.0-4.0-1.1","subject_id":"5ef698a927c8ea38d5bcc192","study_id":"6197b3f67c2b5cd3b6d9596a","session_id":"619beefc9a3d9c4719aacb9a","condition":"contingent","relevant_dimensions":["pattern","legs"],"bee_group":{"antennae":"X","wings":"X","pattern":"D","legs":"F"},"bonus":1.320000000000001},{"rt":2908.5,"stimulus":"bees-with-color/bee-A2DM.svg","response":0,"trial_type":"image-button-response","trial_index":11,"time_elapsed":188176,"internal_node_id":"0.0-4.0-0.2","subject_id":"5ef698a927c8ea38d5bcc192","study_id":"6197b3f67c2b5cd3b6d9596a","session_id":"619beefc9a3d9c4719aacb9a","condition":"contingent","relevant_dimensions":["pattern","legs"],"bee_group":{"antennae":"X","wings":"X","pattern":"D","legs":"F"},"action":"harvest","summary":"good-harvest","bonus":1.320000000000001},{"rt":6581,"stimulus":"\n                    <p><b>Action: <em>harvest</em></b></p>\n                    <p>This is the bee that you just saw.</p>\n                    <img src=\"bees-with-color/bee-A2DM.svg\" width=\"200\">\n                    <p><span class=\"greenText\"><b>Successful harvest!</b></span><br>Your pay has increased by $0.02. Your bonus pay is now $0.48.</p>\n            ","response":0,"trial_type":"html-button-response","trial_index":12,"time_elapsed":194760,"internal_node_id":"0.0-4.0-1.2","subject_id":"5ef698a927c8ea38d5bcc192","study_id":"6197b3f67c2b5cd3b6d9596a","session_id":"619beefc9a3d9c4719aacb9a","condition":"contingent","relevant_dimensions":["pattern","legs"],"bee_group":{"antennae":"X","wings":"X","pattern":"D","legs":"F"},"bonus":1.320000000000001},{"rt":3277.100000023842,"stimulus":"bees-with-color/bee-A2SF.svg","response":0,"trial_type":"image-button-response","trial_index":13,"time_elapsed":198040,"internal_node_id":"0.0-4.0-0.3","subject_id":"5ef698a927c8ea38d5bcc192","study_id":"6197b3f67c2b5cd3b6d9596a","session_id":"619beefc9a3d9c4719aacb9a","condition":"contingent","relevant_dimensions":["pattern","legs"],"bee_group":{"antennae":"X","wings":"X","pattern":"D","legs":"F"},"action":"harvest","summary":"good-harvest","bonus":1.320000000000001},{"rt":2013.6000000238419,"stimulus":"\n                    <p><b>Action: <em>harvest</em></b></p>\n                    <p>This is the bee that you just saw.</p>\n                    <img src=\"bees-with-color/bee-A2SF.svg\" width=\"200\">\n                    <p><span class=\"greenText\"><b>Successful harvest!</b></span><br>Your pay has increased by $0.02. Your bonus pay is now $0.50.</p>\n            ","response":0,"trial_type":"html-button-response","trial_index":14,"time_elapsed":200056,"internal_node_id":"0.0-4.0-1.3","subject_id":"5ef698a927c8ea38d5bcc192","study_id":"6197b3f67c2b5cd3b6d9596a","session_id":"619beefc9a3d9c4719aacb9a","condition":"contingent","relevant_dimensions":["pattern","legs"],"bee_group":{"antennae":"X","wings":"X","pattern":"D","legs":"F"},"bonus":1.320000000000001},{"rt":1277.2000000476837,"stimulus":"bees-with-color/bee-A2DF.svg","response":1,"trial_type":"image-button-response","trial_index":15,"time_elapsed":201336,"internal_node_id":"0.0-4.0-0.4","subject_id":"5ef698a927c8ea38d5bcc192","study_id":"6197b3f67c2b5cd3b6d9596a","session_id":"619beefc9a3d9c4719aacb9a","condition":"contingent","relevant_dimensions":["pattern","legs"],"bee_group":{"antennae":"X","wings":"X","pattern":"D","legs":"F"},"action":"avoid","summary":"good-avoid","bonus":1.320000000000001},{"rt":2902.2000000476837,"stimulus":"\n                    <p><b>Action: <em>avoid</em></b></p>\n                    <p>This is the bee that you just saw.</p>\n                    <img src=\"bees-with-color/bee-A2DF.svg\" width=\"200\">\n                    <p><br>Your bonus pay is unchanged, and remains at $0.50.</p>\n            ","response":0,"trial_type":"html-button-response","trial_index":16,"time_elapsed":204240,"internal_node_id":"0.0-4.0-1.4","subject_id":"5ef698a927c8ea38d5bcc192","study_id":"6197b3f67c2b5cd3b6d9596a","session_id":"619beefc9a3d9c4719aacb9a","condition":"contingent","relevant_dimensions":["pattern","legs"],"bee_group":{"antennae":"X","wings":"X","pattern":"D","legs":"F"},"bonus":1.320000000000001},{"rt":2205.899999976158,"stimulus":"bees-with-color/bee-A1DM.svg","response":1,"trial_type":"image-button-response","trial_index":17,"time_elapsed":206448,"internal_node_id":"0.0-4.0-0.5","subject_id":"5ef698a927c8ea38d5bcc192","study_id":"6197b3f67c2b5cd3b6d9596a","session_id":"619beefc9a3d9c4719aacb9a","condition":"contingent","relevant_dimensions":["pattern","legs"],"bee_group":{"antennae":"X","wings":"X","pattern":"D","legs":"F"},"action":"avoid","summary":"bad-avoid","bonus":1.320000000000001},{"rt":1558.3999999761581,"stimulus":"\n                    <p><b>Action: <em>avoid</em></b></p>\n                    <p>This is the bee that you just saw.</p>\n                    <img src=\"bees-with-color/bee-A1DM.svg\" width=\"200\">\n                    <p><br>Your bonus pay is unchanged, and remains at $0.50.</p>\n            ","response":0,"trial_type":"html-button-response","trial_index":18,"time_elapsed":208008,"internal_node_id":"0.0-4.0-1.5","subject_id":"5ef698a927c8ea38d5bcc192","study_id":"6197b3f67c2b5cd3b6d9596a","session_id":"619beefc9a3d9c4719aacb9a","condition":"contingent","relevant_dimensions":["pattern","legs"],"bee_group":{"antennae":"X","wings":"X","pattern":"D","legs":"F"},"bonus":1.320000000000001},{"rt":2325,"stimulus":"bees-with-color/bee-B2DM.svg","response":0,"trial_type":"image-button-response","trial_index":19,"time_elapsed":210336,"internal_node_id":"0.0-4.0-0.6","subject_id":"5ef698a927c8ea38d5bcc192","study_id":"6197b3f67c2b5cd3b6d9596a","session_id":"619beefc9a3d9c4719aacb9a","condition":"contingent","relevant_dimensions":["pattern","legs"],"bee_group":{"antennae":"X","wings":"X","pattern":"D","legs":"F"},"action":"harvest","summary":"good-harvest","bonus":1.320000000000001},{"rt":6022.199999928474,"stimulus":"\n                    <p><b>Action: <em>harvest</em></b></p>\n                    <p>This is the bee that you just saw.</p>\n                    <img src=\"bees-with-color/bee-B2DM.svg\" width=\"200\">\n                    <p><span class=\"greenText\"><b>Successful harvest!</b></span><br>Your pay has increased by $0.02. Your bonus pay is now $0.52.</p>\n            ","response":0,"trial_type":"html-button-response","trial_index":20,"time_elapsed":216360,"internal_node_id":"0.0-4.0-1.6","subject_id":"5ef698a927c8ea38d5bcc192","study_id":"6197b3f67c2b5cd3b6d9596a","session_id":"619beefc9a3d9c4719aacb9a","condition":"contingent","relevant_dimensions":["pattern","legs"],"bee_group":{"antennae":"X","wings":"X","pattern":"D","legs":"F"},"bonus":1.320000000000001},{"rt":1965.6999999284744,"stimulus":"bees-with-color/bee-B2SM.svg","response":0,"trial_type":"image-button-response","trial_index":21,"time_elapsed":218328,"internal_node_id":"0.0-4.0-0.7","subject_id":"5ef698a927c8ea38d5bcc192","study_id":"6197b3f67c2b5cd3b6d9596a","session_id":"619beefc9a3d9c4719aacb9a","condition":"contingent","relevant_dimensions":["pattern","legs"],"bee_group":{"antennae":"X","wings":"X","pattern":"D","legs":"F"},"action":"harvest","summary":"good-harvest","bonus":1.320000000000001},{"rt":1583.2999999523163,"stimulus":"\n                    <p><b>Action: <em>harvest</em></b></p>\n                    <p>This is the bee that you just saw.</p>\n                    <img src=\"bees-with-color/bee-B2SM.svg\" width=\"200\">\n                    <p><span class=\"greenText\"><b>Successful harvest!</b></span><br>Your pay has increased by $0.02. Your bonus pay is now $0.54.</p>\n            ","response":0,"trial_type":"html-button-response","trial_index":22,"time_elapsed":219913,"internal_node_id":"0.0-4.0-1.7","subject_id":"5ef698a927c8ea38d5bcc192","study_id":"6197b3f67c2b5cd3b6d9596a","session_id":"619beefc9a3d9c4719aacb9a","condition":"contingent","relevant_dimensions":["pattern","legs"],"bee_group":{"antennae":"X","wings":"X","pattern":"D","legs":"F"},"bonus":1.320000000000001},{"rt":1658.7999999523163,"stimulus":"bees-with-color/bee-B1DM.svg","response":0,"trial_type":"image-button-response","trial_index":23,"time_elapsed":221576,"internal_node_id":"0.0-4.0-0.8","subject_id":"5ef698a927c8ea38d5bcc192","study_id":"6197b3f67c2b5cd3b6d9596a","session_id":"619beefc9a3d9c4719aacb9a","condition":"contingent","relevant_dimensions":["pattern","legs"],"bee_group":{"antennae":"X","wings":"X","pattern":"D","legs":"F"},"action":"harvest","summary":"good-harvest","bonus":1.320000000000001},{"rt":1486.5999999046326,"stimulus":"\n                    <p><b>Action: <em>harvest</em></b></p>\n                    <p>This is the bee that you just saw.</p>\n                    <img src=\"bees-with-color/bee-B1DM.svg\" width=\"200\">\n                    <p><span class=\"greenText\"><b>Successful harvest!</b></span><br>Your pay has increased by $0.02. Your bonus pay is now $0.56.</p>\n            ","response":0,"trial_type":"html-button-response","trial_index":24,"time_elapsed":223064,"internal_node_id":"0.0-4.0-1.8","subject_id":"5ef698a927c8ea38d5bcc192","study_id":"6197b3f67c2b5cd3b6d9596a","session_id":"619beefc9a3d9c4719aacb9a","condition":"contingent","relevant_dimensions":["pattern","legs"],"bee_group":{"antennae":"X","wings":"X","pattern":"D","legs":"F"},"bonus":1.320000000000001},{"rt":1454.3999999761581,"stimulus":"bees-with-color/bee-A1SM.svg","response":1,"trial_type":"image-button-response","trial_index":25,"time_elapsed":224520,"internal_node_id":"0.0-4.0-0.9","subject_id":"5ef698a927c8ea38d5bcc192","study_id":"6197b3f67c2b5cd3b6d9596a","session_id":"619beefc9a3d9c4719aacb9a","condition":"contingent","relevant_dimensions":["pattern","legs"],"bee_group":{"antennae":"X","wings":"X","pattern":"D","legs":"F"},"action":"avoid","summary":"bad-avoid","bonus":1.320000000000001},{"rt":1574,"stimulus":"\n                    <p><b>Action: <em>avoid</em></b></p>\n                    <p>This is the bee that you just saw.</p>\n                    <img src=\"bees-with-color/bee-A1SM.svg\" width=\"200\">\n                    <p><br>Your bonus pay is unchanged, and remains at $0.56.</p>\n            ","response":0,"trial_type":"html-button-response","trial_index":26,"time_elapsed":226097,"internal_node_id":"0.0-4.0-1.9","subject_id":"5ef698a927c8ea38d5bcc192","study_id":"6197b3f67c2b5cd3b6d9596a","session_id":"619beefc9a3d9c4719aacb9a","condition":"contingent","relevant_dimensions":["pattern","legs"],"bee_group":{"antennae":"X","wings":"X","pattern":"D","legs":"F"},"bonus":1.320000000000001},{"rt":1853.6000000238419,"stimulus":"bees-with-color/bee-A2SM.svg","response":1,"trial_type":"image-button-response","trial_index":27,"time_elapsed":227952,"internal_node_id":"0.0-4.0-0.10","subject_id":"5ef698a927c8ea38d5bcc192","study_id":"6197b3f67c2b5cd3b6d9596a","session_id":"619beefc9a3d9c4719aacb9a","condition":"contingent","relevant_dimensions":["pattern","legs"],"bee_group":{"antennae":"X","wings":"X","pattern":"D","legs":"F"},"action":"avoid","summary":"bad-avoid","bonus":1.320000000000001},{"rt":1453.8999999761581,"stimulus":"\n                    <p><b>Action: <em>avoid</em></b></p>\n                    <p>This is the bee that you just saw.</p>\n                    <img src=\"bees-with-color/bee-A2SM.svg\" width=\"200\">\n                    <p><br>Your bonus pay is unchanged, and remains at $0.56.</p>\n            ","response":0,"trial_type":"html-button-response","trial_index":28,"time_elapsed":229409,"internal_node_id":"0.0-4.0-1.10","subject_id":"5ef698a927c8ea38d5bcc192","study_id":"6197b3f67c2b5cd3b6d9596a","session_id":"619beefc9a3d9c4719aacb9a","condition":"contingent","relevant_dimensions":["pattern","legs"],"bee_group":{"antennae":"X","wings":"X","pattern":"D","legs":"F"},"bonus":1.320000000000001},{"rt":1150.1999999284744,"stimulus":"bees-with-color/bee-B1SM.svg","response":0,"trial_type":"image-button-response","trial_index":29,"time_elapsed":230561,"internal_node_id":"0.0-4.0-0.11","subject_id":"5ef698a927c8ea38d5bcc192","study_id":"6197b3f67c2b5cd3b6d9596a","session_id":"619beefc9a3d9c4719aacb9a","condition":"contingent","relevant_dimensions":["pattern","legs"],"bee_group":{"antennae":"X","wings":"X","pattern":"D","legs":"F"},"action":"harvest","summary":"good-harvest","bonus":1.320000000000001},{"rt":1126.1000000238419,"stimulus":"\n                    <p><b>Action: <em>harvest</em></b></p>\n                    <p>This is the bee that you just saw.</p>\n                    <img src=\"bees-with-color/bee-B1SM.svg\" width=\"200\">\n                    <p><span class=\"greenText\"><b>Successful harvest!</b></span><br>Your pay has increased by $0.02. Your bonus pay is now $0.58.</p>\n            ","response":0,"trial_type":"html-button-response","trial_index":30,"time_elapsed":231689,"internal_node_id":"0.0-4.0-1.11","subject_id":"5ef698a927c8ea38d5bcc192","study_id":"6197b3f67c2b5cd3b6d9596a","session_id":"619beefc9a3d9c4719aacb9a","condition":"contingent","relevant_dimensions":["pattern","legs"],"bee_group":{"antennae":"X","wings":"X","pattern":"D","legs":"F"},"bonus":1.320000000000001},{"rt":1477.5,"stimulus":"bees-with-color/bee-B2DF.svg","response":0,"trial_type":"image-button-response","trial_index":31,"time_elapsed":233169,"internal_node_id":"0.0-4.0-0.12","subject_id":"5ef698a927c8ea38d5bcc192","study_id":"6197b3f67c2b5cd3b6d9596a","session_id":"619beefc9a3d9c4719aacb9a","condition":"contingent","relevant_dimensions":["pattern","legs"],"bee_group":{"antennae":"X","wings":"X","pattern":"D","legs":"F"},"action":"harvest","summary":"bad-harvest","bonus":1.320000000000001},{"rt":6334,"stimulus":"\n                    <p><b>Action: <em>harvest</em></b></p>\n                    <p>This is the bee that you just saw.</p>\n                    <img src=\"bees-with-color/bee-B2DF.svg\" width=\"200\">\n                    <p><span class=\"redText\">Bad choice, the bee was angry.</span><br><b>You have been stung!</b><br>Your pay has been decreased by $0.10. Your bonus pay is now $0.48.</p>\n            ","response":0,"trial_type":"html-button-response","trial_index":32,"time_elapsed":239505,"internal_node_id":"0.0-4.0-1.12","subject_id":"5ef698a927c8ea38d5bcc192","study_id":"6197b3f67c2b5cd3b6d9596a","session_id":"619beefc9a3d9c4719aacb9a","condition":"contingent","relevant_dimensions":["pattern","legs"],"bee_group":{"antennae":"X","wings":"X","pattern":"D","legs":"F"},"bonus":1.320000000000001},{"rt":2093.4000000953674,"stimulus":"bees-with-color/bee-A1DF.svg","response":1,"trial_type":"image-button-response","trial_index":33,"time_elapsed":241601,"internal_node_id":"0.0-4.0-0.13","subject_id":"5ef698a927c8ea38d5bcc192","study_id":"6197b3f67c2b5cd3b6d9596a","session_id":"619beefc9a3d9c4719aacb9a","condition":"contingent","relevant_dimensions":["pattern","legs"],"bee_group":{"antennae":"X","wings":"X","pattern":"D","legs":"F"},"action":"avoid","summary":"good-avoid","bonus":1.320000000000001},{"rt":1134,"stimulus":"\n                    <p><b>Action: <em>avoid</em></b></p>\n                    <p>This is the bee that you just saw.</p>\n                    <img src=\"bees-with-color/bee-A1DF.svg\" width=\"200\">\n                    <p><br>Your bonus pay is unchanged, and remains at $0.48.</p>\n            ","response":0,"trial_type":"html-button-response","trial_index":34,"time_elapsed":242737,"internal_node_id":"0.0-4.0-1.13","subject_id":"5ef698a927c8ea38d5bcc192","study_id":"6197b3f67c2b5cd3b6d9596a","session_id":"619beefc9a3d9c4719aacb9a","condition":"contingent","relevant_dimensions":["pattern","legs"],"bee_group":{"antennae":"X","wings":"X","pattern":"D","legs":"F"},"bonus":1.320000000000001},{"rt":1910.1999999284744,"stimulus":"bees-with-color/bee-B2SF.svg","response":0,"trial_type":"image-button-response","trial_index":35,"time_elapsed":244649,"internal_node_id":"0.0-4.0-0.14","subject_id":"5ef698a927c8ea38d5bcc192","study_id":"6197b3f67c2b5cd3b6d9596a","session_id":"619beefc9a3d9c4719aacb9a","condition":"contingent","relevant_dimensions":["pattern","legs"],"bee_group":{"antennae":"X","wings":"X","pattern":"D","legs":"F"},"action":"harvest","summary":"good-harvest","bonus":1.320000000000001},{"rt":1613.8999999761581,"stimulus":"\n                    <p><b>Action: <em>harvest</em></b></p>\n                    <p>This is the bee that you just saw.</p>\n                    <img src=\"bees-with-color/bee-B2SF.svg\" width=\"200\">\n                    <p><span class=\"greenText\"><b>Successful harvest!</b></span><br>Your pay has increased by $0.02. Your bonus pay is now $0.50.</p>\n            ","response":0,"trial_type":"html-button-response","trial_index":36,"time_elapsed":246265,"internal_node_id":"0.0-4.0-1.14","subject_id":"5ef698a927c8ea38d5bcc192","study_id":"6197b3f67c2b5cd3b6d9596a","session_id":"619beefc9a3d9c4719aacb9a","condition":"contingent","relevant_dimensions":["pattern","legs"],"bee_group":{"antennae":"X","wings":"X","pattern":"D","legs":"F"},"bonus":1.320000000000001},{"rt":2933.7999999523163,"stimulus":"bees-with-color/bee-B1SF.svg","response":0,"trial_type":"image-button-response","trial_index":37,"time_elapsed":249201,"internal_node_id":"0.0-4.0-0.15","subject_id":"5ef698a927c8ea38d5bcc192","study_id":"6197b3f67c2b5cd3b6d9596a","session_id":"619beefc9a3d9c4719aacb9a","condition":"contingent","relevant_dimensions":["pattern","legs"],"bee_group":{"antennae":"X","wings":"X","pattern":"D","legs":"F"},"action":"harvest","summary":"good-harvest","bonus":1.320000000000001},{"rt":1333.8999999761581,"stimulus":"\n                    <p><b>Action: <em>harvest</em></b></p>\n                    <p>This is the bee that you just saw.</p>\n                    <img src=\"bees-with-color/bee-B1SF.svg\" width=\"200\">\n                    <p><span class=\"greenText\"><b>Successful harvest!</b></span><br>Your pay has increased by $0.02. Your bonus pay is now $0.52.</p>\n            ","response":0,"trial_type":"html-button-response","trial_index":38,"time_elapsed":250537,"internal_node_id":"0.0-4.0-1.15","subject_id":"5ef698a927c8ea38d5bcc192","study_id":"6197b3f67c2b5cd3b6d9596a","session_id":"619beefc9a3d9c4719aacb9a","condition":"contingent","relevant_dimensions":["pattern","legs"],"bee_group":{"antennae":"X","wings":"X","pattern":"D","legs":"F"},"bonus":1.320000000000001},{"rt":2861.600000023842,"stimulus":"bees-with-color/bee-B2DM.svg","response":1,"trial_type":"image-button-response","trial_index":39,"time_elapsed":253401,"internal_node_id":"0.0-4.0-0.16","subject_id":"5ef698a927c8ea38d5bcc192","study_id":"6197b3f67c2b5cd3b6d9596a","session_id":"619beefc9a3d9c4719aacb9a","condition":"contingent","relevant_dimensions":["pattern","legs"],"bee_group":{"antennae":"X","wings":"X","pattern":"D","legs":"F"},"action":"avoid","summary":"bad-avoid","bonus":1.320000000000001},{"rt":1053.8999999761581,"stimulus":"\n                    <p><b>Action: <em>avoid</em></b></p>\n                    <p>This is the bee that you just saw.</p>\n                    <img src=\"bees-with-color/bee-B2DM.svg\" width=\"200\">\n                    <p><br>Your bonus pay is unchanged, and remains at $0.52.</p>\n            ","response":0,"trial_type":"html-button-response","trial_index":40,"time_elapsed":254457,"internal_node_id":"0.0-4.0-1.16","subject_id":"5ef698a927c8ea38d5bcc192","study_id":"6197b3f67c2b5cd3b6d9596a","session_id":"619beefc9a3d9c4719aacb9a","condition":"contingent","relevant_dimensions":["pattern","legs"],"bee_group":{"antennae":"X","wings":"X","pattern":"D","legs":"F"},"bonus":1.320000000000001},{"rt":1317.6999999284744,"stimulus":"bees-with-color/bee-A1SF.svg","response":0,"trial_type":"image-button-response","trial_index":41,"time_elapsed":255777,"internal_node_id":"0.0-4.0-0.17","subject_id":"5ef698a927c8ea38d5bcc192","study_id":"6197b3f67c2b5cd3b6d9596a","session_id":"619beefc9a3d9c4719aacb9a","condition":"contingent","relevant_dimensions":["pattern","legs"],"bee_group":{"antennae":"X","wings":"X","pattern":"D","legs":"F"},"action":"harvest","summary":"good-harvest","bonus":1.320000000000001},{"rt":1173.7999999523163,"stimulus":"\n                    <p><b>Action: <em>harvest</em></b></p>\n                    <p>This is the bee that you just saw.</p>\n                    <img src=\"bees-with-color/bee-A1SF.svg\" width=\"200\">\n                    <p><span class=\"greenText\"><b>Successful harvest!</b></span><br>Your pay has increased by $0.02. Your bonus pay is now $0.54.</p>\n            ","response":0,"trial_type":"html-button-response","trial_index":42,"time_elapsed":256953,"internal_node_id":"0.0-4.0-1.17","subject_id":"5ef698a927c8ea38d5bcc192","study_id":"6197b3f67c2b5cd3b6d9596a","session_id":"619beefc9a3d9c4719aacb9a","condition":"contingent","relevant_dimensions":["pattern","legs"],"bee_group":{"antennae":"X","wings":"X","pattern":"D","legs":"F"},"bonus":1.320000000000001},{"rt":1909.5999999046326,"stimulus":"bees-with-color/bee-A2DM.svg","response":0,"trial_type":"image-button-response","trial_index":43,"time_elapsed":258864,"internal_node_id":"0.0-4.0-0.18","subject_id":"5ef698a927c8ea38d5bcc192","study_id":"6197b3f67c2b5cd3b6d9596a","session_id":"619beefc9a3d9c4719aacb9a","condition":"contingent","relevant_dimensions":["pattern","legs"],"bee_group":{"antennae":"X","wings":"X","pattern":"D","legs":"F"},"action":"harvest","summary":"good-harvest","bonus":1.320000000000001},{"rt":10094.199999928474,"stimulus":"\n                    <p><b>Action: <em>harvest</em></b></p>\n                    <p>This is the bee that you just saw.</p>\n                    <img src=\"bees-with-color/bee-A2DM.svg\" width=\"200\">\n                    <p><span class=\"greenText\"><b>Successful harvest!</b></span><br>Your pay has increased by $0.02. Your bonus pay is now $0.56.</p>\n            ","response":0,"trial_type":"html-button-response","trial_index":44,"time_elapsed":268961,"internal_node_id":"0.0-4.0-1.18","subject_id":"5ef698a927c8ea38d5bcc192","study_id":"6197b3f67c2b5cd3b6d9596a","session_id":"619beefc9a3d9c4719aacb9a","condition":"contingent","relevant_dimensions":["pattern","legs"],"bee_group":{"antennae":"X","wings":"X","pattern":"D","legs":"F"},"bonus":1.320000000000001},{"rt":1261.7999999523163,"stimulus":"bees-with-color/bee-B1SM.svg","response":0,"trial_type":"image-button-response","trial_index":45,"time_elapsed":270225,"internal_node_id":"0.0-4.0-0.19","subject_id":"5ef698a927c8ea38d5bcc192","study_id":"6197b3f67c2b5cd3b6d9596a","session_id":"619beefc9a3d9c4719aacb9a","condition":"contingent","relevant_dimensions":["pattern","legs"],"bee_group":{"antennae":"X","wings":"X","pattern":"D","legs":"F"},"action":"harvest","summary":"good-harvest","bonus":1.320000000000001},{"rt":1093.3999999761581,"stimulus":"\n                    <p><b>Action: <em>harvest</em></b></p>\n                    <p>This is the bee that you just saw.</p>\n                    <img src=\"bees-with-color/bee-B1SM.svg\" width=\"200\">\n                    <p><span class=\"greenText\"><b>Successful harvest!</b></span><br>Your pay has increased by $0.02. Your bonus pay is now $0.58.</p>\n            ","response":0,"trial_type":"html-button-response","trial_index":46,"time_elapsed":271320,"internal_node_id":"0.0-4.0-1.19","subject_id":"5ef698a927c8ea38d5bcc192","study_id":"6197b3f67c2b5cd3b6d9596a","session_id":"619beefc9a3d9c4719aacb9a","condition":"contingent","relevant_dimensions":["pattern","legs"],"bee_group":{"antennae":"X","wings":"X","pattern":"D","legs":"F"},"bonus":1.320000000000001},{"rt":1367.5,"stimulus":"bees-with-color/bee-B2SF.svg","response":1,"trial_type":"image-button-response","trial_index":47,"time_elapsed":272689,"internal_node_id":"0.0-4.0-0.20","subject_id":"5ef698a927c8ea38d5bcc192","study_id":"6197b3f67c2b5cd3b6d9596a","session_id":"619beefc9a3d9c4719aacb9a","condition":"contingent","relevant_dimensions":["pattern","legs"],"bee_group":{"antennae":"X","wings":"X","pattern":"D","legs":"F"},"action":"avoid","summary":"bad-avoid","bonus":1.320000000000001},{"rt":1125.2999999523163,"stimulus":"\n                    <p><b>Action: <em>avoid</em></b></p>\n                    <p>This is the bee that you just saw.</p>\n                    <img src=\"bees-with-color/bee-B2SF.svg\" width=\"200\">\n                    <p><br>Your bonus pay is unchanged, and remains at $0.58.</p>\n            ","response":0,"trial_type":"html-button-response","trial_index":48,"time_elapsed":273816,"internal_node_id":"0.0-4.0-1.20","subject_id":"5ef698a927c8ea38d5bcc192","study_id":"6197b3f67c2b5cd3b6d9596a","session_id":"619beefc9a3d9c4719aacb9a","condition":"contingent","relevant_dimensions":["pattern","legs"],"bee_group":{"antennae":"X","wings":"X","pattern":"D","legs":"F"},"bonus":1.320000000000001},{"rt":3199.7000000476837,"stimulus":"bees-with-color/bee-A1DF.svg","response":1,"trial_type":"image-button-response","trial_index":49,"time_elapsed":277016,"internal_node_id":"0.0-4.0-0.21","subject_id":"5ef698a927c8ea38d5bcc192","study_id":"6197b3f67c2b5cd3b6d9596a","session_id":"619beefc9a3d9c4719aacb9a","condition":"contingent","relevant_dimensions":["pattern","legs"],"bee_group":{"antennae":"X","wings":"X","pattern":"D","legs":"F"},"action":"avoid","summary":"good-avoid","bonus":1.320000000000001},{"rt":1254.4000000953674,"stimulus":"\n                    <p><b>Action: <em>avoid</em></b></p>\n                    <p>This is the bee that you just saw.</p>\n                    <img src=\"bees-with-color/bee-A1DF.svg\" width=\"200\">\n                    <p><br>Your bonus pay is unchanged, and remains at $0.58.</p>\n            ","response":0,"trial_type":"html-button-response","trial_index":50,"time_elapsed":278272,"internal_node_id":"0.0-4.0-1.21","subject_id":"5ef698a927c8ea38d5bcc192","study_id":"6197b3f67c2b5cd3b6d9596a","session_id":"619beefc9a3d9c4719aacb9a","condition":"contingent","relevant_dimensions":["pattern","legs"],"bee_group":{"antennae":"X","wings":"X","pattern":"D","legs":"F"},"bonus":1.320000000000001},{"rt":2054.1999999284744,"stimulus":"bees-with-color/bee-A2SM.svg","response":0,"trial_type":"image-button-response","trial_index":51,"time_elapsed":280329,"internal_node_id":"0.0-4.0-0.22","subject_id":"5ef698a927c8ea38d5bcc192","study_id":"6197b3f67c2b5cd3b6d9596a","session_id":"619beefc9a3d9c4719aacb9a","condition":"contingent","relevant_dimensions":["pattern","legs"],"bee_group":{"antennae":"X","wings":"X","pattern":"D","legs":"F"},"action":"harvest","summary":"good-harvest","bonus":1.320000000000001},{"rt":3102.100000023842,"stimulus":"\n                    <p><b>Action: <em>harvest</em></b></p>\n                    <p>This is the bee that you just saw.</p>\n                    <img src=\"bees-with-color/bee-A2SM.svg\" width=\"200\">\n                    <p><span class=\"greenText\"><b>Successful harvest!</b></span><br>Your pay has increased by $0.02. Your bonus pay is now $0.60.</p>\n            ","response":0,"trial_type":"html-button-response","trial_index":52,"time_elapsed":283432,"internal_node_id":"0.0-4.0-1.22","subject_id":"5ef698a927c8ea38d5bcc192","study_id":"6197b3f67c2b5cd3b6d9596a","session_id":"619beefc9a3d9c4719aacb9a","condition":"contingent","relevant_dimensions":["pattern","legs"],"bee_group":{"antennae":"X","wings":"X","pattern":"D","legs":"F"},"bonus":1.320000000000001},{"rt":1309.8999999761581,"stimulus":"bees-with-color/bee-B1DF.svg","response":1,"trial_type":"image-button-response","trial_index":53,"time_elapsed":284745,"internal_node_id":"0.0-4.0-0.23","subject_id":"5ef698a927c8ea38d5bcc192","study_id":"6197b3f67c2b5cd3b6d9596a","session_id":"619beefc9a3d9c4719aacb9a","condition":"contingent","relevant_dimensions":["pattern","legs"],"bee_group":{"antennae":"X","wings":"X","pattern":"D","legs":"F"},"action":"avoid","summary":"good-avoid","bonus":1.320000000000001},{"rt":1406.0999999046326,"stimulus":"\n                    <p><b>Action: <em>avoid</em></b></p>\n                    <p>This is the bee that you just saw.</p>\n                    <img src=\"bees-with-color/bee-B1DF.svg\" width=\"200\">\n                    <p><br>Your bonus pay is unchanged, and remains at $0.60.</p>\n            ","response":0,"trial_type":"html-button-response","trial_index":54,"time_elapsed":286152,"internal_node_id":"0.0-4.0-1.23","subject_id":"5ef698a927c8ea38d5bcc192","study_id":"6197b3f67c2b5cd3b6d9596a","session_id":"619beefc9a3d9c4719aacb9a","condition":"contingent","relevant_dimensions":["pattern","legs"],"bee_group":{"antennae":"X","wings":"X","pattern":"D","legs":"F"},"bonus":1.320000000000001},{"rt":2070.399999976158,"stimulus":"bees-with-color/bee-B1DM.svg","response":0,"trial_type":"image-button-response","trial_index":55,"time_elapsed":288224,"internal_node_id":"0.0-4.0-0.24","subject_id":"5ef698a927c8ea38d5bcc192","study_id":"6197b3f67c2b5cd3b6d9596a","session_id":"619beefc9a3d9c4719aacb9a","condition":"contingent","relevant_dimensions":["pattern","legs"],"bee_group":{"antennae":"X","wings":"X","pattern":"D","legs":"F"},"action":"harvest","summary":"good-harvest","bonus":1.320000000000001},{"rt":1382.0999999046326,"stimulus":"\n                    <p><b>Action: <em>harvest</em></b></p>\n                    <p>This is the bee that you just saw.</p>\n                    <img src=\"bees-with-color/bee-B1DM.svg\" width=\"200\">\n                    <p><span class=\"greenText\"><b>Successful harvest!</b></span><br>Your pay has increased by $0.02. Your bonus pay is now $0.62.</p>\n            ","response":0,"trial_type":"html-button-response","trial_index":56,"time_elapsed":289608,"internal_node_id":"0.0-4.0-1.24","subject_id":"5ef698a927c8ea38d5bcc192","study_id":"6197b3f67c2b5cd3b6d9596a","session_id":"619beefc9a3d9c4719aacb9a","condition":"contingent","relevant_dimensions":["pattern","legs"],"bee_group":{"antennae":"X","wings":"X","pattern":"D","legs":"F"},"bonus":1.320000000000001},{"rt":1677.4000000953674,"stimulus":"bees-with-color/bee-A2SF.svg","response":1,"trial_type":"image-button-response","trial_index":57,"time_elapsed":291289,"internal_node_id":"0.0-4.0-0.25","subject_id":"5ef698a927c8ea38d5bcc192","study_id":"6197b3f67c2b5cd3b6d9596a","session_id":"619beefc9a3d9c4719aacb9a","condition":"contingent","relevant_dimensions":["pattern","legs"],"bee_group":{"antennae":"X","wings":"X","pattern":"D","legs":"F"},"action":"avoid","summary":"bad-avoid","bonus":1.320000000000001},{"rt":1213.7000000476837,"stimulus":"\n                    <p><b>Action: <em>avoid</em></b></p>\n                    <p>This is the bee that you just saw.</p>\n                    <img src=\"bees-with-color/bee-A2SF.svg\" width=\"200\">\n                    <p><br>Your bonus pay is unchanged, and remains at $0.62.</p>\n            ","response":0,"trial_type":"html-button-response","trial_index":58,"time_elapsed":292504,"internal_node_id":"0.0-4.0-1.25","subject_id":"5ef698a927c8ea38d5bcc192","study_id":"6197b3f67c2b5cd3b6d9596a","session_id":"619beefc9a3d9c4719aacb9a","condition":"contingent","relevant_dimensions":["pattern","legs"],"bee_group":{"antennae":"X","wings":"X","pattern":"D","legs":"F"},"bonus":1.320000000000001},{"rt":1254,"stimulus":"bees-with-color/bee-B2SM.svg","response":0,"trial_type":"image-button-response","trial_index":59,"time_elapsed":293760,"internal_node_id":"0.0-4.0-0.26","subject_id":"5ef698a927c8ea38d5bcc192","study_id":"6197b3f67c2b5cd3b6d9596a","session_id":"619beefc9a3d9c4719aacb9a","condition":"contingent","relevant_dimensions":["pattern","legs"],"bee_group":{"antennae":"X","wings":"X","pattern":"D","legs":"F"},"action":"harvest","summary":"good-harvest","bonus":1.320000000000001},{"rt":1093.7000000476837,"stimulus":"\n                    <p><b>Action: <em>harvest</em></b></p>\n                    <p>This is the bee that you just saw.</p>\n                    <img src=\"bees-with-color/bee-B2SM.svg\" width=\"200\">\n                    <p><span class=\"greenText\"><b>Successful harvest!</b></span><br>Your pay has increased by $0.02. Your bonus pay is now $0.64.</p>\n            ","response":0,"trial_type":"html-button-response","trial_index":60,"time_elapsed":294856,"internal_node_id":"0.0-4.0-1.26","subject_id":"5ef698a927c8ea38d5bcc192","study_id":"6197b3f67c2b5cd3b6d9596a","session_id":"619beefc9a3d9c4719aacb9a","condition":"contingent","relevant_dimensions":["pattern","legs"],"bee_group":{"antennae":"X","wings":"X","pattern":"D","legs":"F"},"bonus":1.320000000000001},{"rt":2038.8999999761581,"stimulus":"bees-with-color/bee-A1DM.svg","response":0,"trial_type":"image-button-response","trial_index":61,"time_elapsed":296896,"internal_node_id":"0.0-4.0-0.27","subject_id":"5ef698a927c8ea38d5bcc192","study_id":"6197b3f67c2b5cd3b6d9596a","session_id":"619beefc9a3d9c4719aacb9a","condition":"contingent","relevant_dimensions":["pattern","legs"],"bee_group":{"antennae":"X","wings":"X","pattern":"D","legs":"F"},"action":"harvest","summary":"good-harvest","bonus":1.320000000000001},{"rt":918.1999999284744,"stimulus":"\n                    <p><b>Action: <em>harvest</em></b></p>\n                    <p>This is the bee that you just saw.</p>\n                    <img src=\"bees-with-color/bee-A1DM.svg\" width=\"200\">\n                    <p><span class=\"greenText\"><b>Successful harvest!</b></span><br>Your pay has increased by $0.02. Your bonus pay is now $0.66.</p>\n            ","response":0,"trial_type":"html-button-response","trial_index":62,"time_elapsed":297816,"internal_node_id":"0.0-4.0-1.27","subject_id":"5ef698a927c8ea38d5bcc192","study_id":"6197b3f67c2b5cd3b6d9596a","session_id":"619beefc9a3d9c4719aacb9a","condition":"contingent","relevant_dimensions":["pattern","legs"],"bee_group":{"antennae":"X","wings":"X","pattern":"D","legs":"F"},"bonus":1.320000000000001},{"rt":1933.3999999761581,"stimulus":"bees-with-color/bee-A2DF.svg","response":1,"trial_type":"image-button-response","trial_index":63,"time_elapsed":299752,"internal_node_id":"0.0-4.0-0.28","subject_id":"5ef698a927c8ea38d5bcc192","study_id":"6197b3f67c2b5cd3b6d9596a","session_id":"619beefc9a3d9c4719aacb9a","condition":"contingent","relevant_dimensions":["pattern","legs"],"bee_group":{"antennae":"X","wings":"X","pattern":"D","legs":"F"},"action":"avoid","summary":"good-avoid","bonus":1.320000000000001},{"rt":1438.2999999523163,"stimulus":"\n                    <p><b>Action: <em>avoid</em></b></p>\n                    <p>This is the bee that you just saw.</p>\n                    <img src=\"bees-with-color/bee-A2DF.svg\" width=\"200\">\n                    <p><br>Your bonus pay is unchanged, and remains at $0.66.</p>\n            ","response":0,"trial_type":"html-button-response","trial_index":64,"time_elapsed":301192,"internal_node_id":"0.0-4.0-1.28","subject_id":"5ef698a927c8ea38d5bcc192","study_id":"6197b3f67c2b5cd3b6d9596a","session_id":"619beefc9a3d9c4719aacb9a","condition":"contingent","relevant_dimensions":["pattern","legs"],"bee_group":{"antennae":"X","wings":"X","pattern":"D","legs":"F"},"bonus":1.320000000000001},{"rt":1069.7000000476837,"stimulus":"bees-with-color/bee-B1SF.svg","response":0,"trial_type":"image-button-response","trial_index":65,"time_elapsed":302264,"internal_node_id":"0.0-4.0-0.29","subject_id":"5ef698a927c8ea38d5bcc192","study_id":"6197b3f67c2b5cd3b6d9596a","session_id":"619beefc9a3d9c4719aacb9a","condition":"contingent","relevant_dimensions":["pattern","legs"],"bee_group":{"antennae":"X","wings":"X","pattern":"D","legs":"F"},"action":"harvest","summary":"good-harvest","bonus":1.320000000000001},{"rt":1021.7999999523163,"stimulus":"\n                    <p><b>Action: <em>harvest</em></b></p>\n                    <p>This is the bee that you just saw.</p>\n                    <img src=\"bees-with-color/bee-B1SF.svg\" width=\"200\">\n                    <p><span class=\"greenText\"><b>Successful harvest!</b></span><br>Your pay has increased by $0.02. Your bonus pay is now $0.68.</p>\n            ","response":0,"trial_type":"html-button-response","trial_index":66,"time_elapsed":303288,"internal_node_id":"0.0-4.0-1.29","subject_id":"5ef698a927c8ea38d5bcc192","study_id":"6197b3f67c2b5cd3b6d9596a","session_id":"619beefc9a3d9c4719aacb9a","condition":"contingent","relevant_dimensions":["pattern","legs"],"bee_group":{"antennae":"X","wings":"X","pattern":"D","legs":"F"},"bonus":1.320000000000001},{"rt":1150.3999999761581,"stimulus":"bees-with-color/bee-B2DF.svg","response":1,"trial_type":"image-button-response","trial_index":67,"time_elapsed":304440,"internal_node_id":"0.0-4.0-0.30","subject_id":"5ef698a927c8ea38d5bcc192","study_id":"6197b3f67c2b5cd3b6d9596a","session_id":"619beefc9a3d9c4719aacb9a","condition":"contingent","relevant_dimensions":["pattern","legs"],"bee_group":{"antennae":"X","wings":"X","pattern":"D","legs":"F"},"action":"avoid","summary":"good-avoid","bonus":1.320000000000001},{"rt":974,"stimulus":"\n                    <p><b>Action: <em>avoid</em></b></p>\n                    <p>This is the bee that you just saw.</p>\n                    <img src=\"bees-with-color/bee-B2DF.svg\" width=\"200\">\n                    <p><br>Your bonus pay is unchanged, and remains at $0.68.</p>\n            ","response":0,"trial_type":"html-button-response","trial_index":68,"time_elapsed":305416,"internal_node_id":"0.0-4.0-1.30","subject_id":"5ef698a927c8ea38d5bcc192","study_id":"6197b3f67c2b5cd3b6d9596a","session_id":"619beefc9a3d9c4719aacb9a","condition":"contingent","relevant_dimensions":["pattern","legs"],"bee_group":{"antennae":"X","wings":"X","pattern":"D","legs":"F"},"bonus":1.320000000000001},{"rt":1158.2000000476837,"stimulus":"bees-with-color/bee-A1SM.svg","response":0,"trial_type":"image-button-response","trial_index":69,"time_elapsed":306576,"internal_node_id":"0.0-4.0-0.31","subject_id":"5ef698a927c8ea38d5bcc192","study_id":"6197b3f67c2b5cd3b6d9596a","session_id":"619beefc9a3d9c4719aacb9a","condition":"contingent","relevant_dimensions":["pattern","legs"],"bee_group":{"antennae":"X","wings":"X","pattern":"D","legs":"F"},"action":"harvest","summary":"good-harvest","bonus":1.320000000000001},{"rt":885.8000000715256,"stimulus":"\n                    <p><b>Action: <em>harvest</em></b></p>\n                    <p>This is the bee that you just saw.</p>\n                    <img src=\"bees-with-color/bee-A1SM.svg\" width=\"200\">\n                    <p><span class=\"greenText\"><b>Successful harvest!</b></span><br>Your pay has increased by $0.02. Your bonus pay is now $0.70.</p>\n            ","response":0,"trial_type":"html-button-response","trial_index":70,"time_elapsed":307464,"internal_node_id":"0.0-4.0-1.31","subject_id":"5ef698a927c8ea38d5bcc192","study_id":"6197b3f67c2b5cd3b6d9596a","session_id":"619beefc9a3d9c4719aacb9a","condition":"contingent","relevant_dimensions":["pattern","legs"],"bee_group":{"antennae":"X","wings":"X","pattern":"D","legs":"F"},"bonus":1.320000000000001},{"rt":838.3999999761581,"stimulus":"bees-with-color/bee-A2DM.svg","response":1,"trial_type":"image-button-response","trial_index":71,"time_elapsed":308304,"internal_node_id":"0.0-4.0-0.32","subject_id":"5ef698a927c8ea38d5bcc192","study_id":"6197b3f67c2b5cd3b6d9596a","session_id":"619beefc9a3d9c4719aacb9a","condition":"contingent","relevant_dimensions":["pattern","legs"],"bee_group":{"antennae":"X","wings":"X","pattern":"D","legs":"F"},"action":"avoid","summary":"bad-avoid","bonus":1.320000000000001},{"rt":1509.9000000953674,"stimulus":"\n                    <p><b>Action: <em>avoid</em></b></p>\n                    <p>This is the bee that you just saw.</p>\n                    <img src=\"bees-with-color/bee-A2DM.svg\" width=\"200\">\n                    <p><br>Your bonus pay is unchanged, and remains at $0.70.</p>\n            ","response":0,"trial_type":"html-button-response","trial_index":72,"time_elapsed":309816,"internal_node_id":"0.0-4.0-1.32","subject_id":"5ef698a927c8ea38d5bcc192","study_id":"6197b3f67c2b5cd3b6d9596a","session_id":"619beefc9a3d9c4719aacb9a","condition":"contingent","relevant_dimensions":["pattern","legs"],"bee_group":{"antennae":"X","wings":"X","pattern":"D","legs":"F"},"bonus":1.320000000000001},{"rt":1830.2999999523163,"stimulus":"bees-with-color/bee-B2DF.svg","response":1,"trial_type":"image-button-response","trial_index":73,"time_elapsed":311648,"internal_node_id":"0.0-4.0-0.33","subject_id":"5ef698a927c8ea38d5bcc192","study_id":"6197b3f67c2b5cd3b6d9596a","session_id":"619beefc9a3d9c4719aacb9a","condition":"contingent","relevant_dimensions":["pattern","legs"],"bee_group":{"antennae":"X","wings":"X","pattern":"D","legs":"F"},"action":"avoid","summary":"good-avoid","bonus":1.320000000000001},{"rt":1077.7000000476837,"stimulus":"\n                    <p><b>Action: <em>avoid</em></b></p>\n                    <p>This is the bee that you just saw.</p>\n                    <img src=\"bees-with-color/bee-B2DF.svg\" width=\"200\">\n                    <p><br>Your bonus pay is unchanged, and remains at $0.70.</p>\n            ","response":0,"trial_type":"html-button-response","trial_index":74,"time_elapsed":312728,"internal_node_id":"0.0-4.0-1.33","subject_id":"5ef698a927c8ea38d5bcc192","study_id":"6197b3f67c2b5cd3b6d9596a","session_id":"619beefc9a3d9c4719aacb9a","condition":"contingent","relevant_dimensions":["pattern","legs"],"bee_group":{"antennae":"X","wings":"X","pattern":"D","legs":"F"},"bonus":1.320000000000001},{"rt":1014.2000000476837,"stimulus":"bees-with-color/bee-B2DM.svg","response":0,"trial_type":"image-button-response","trial_index":75,"time_elapsed":313744,"internal_node_id":"0.0-4.0-0.34","subject_id":"5ef698a927c8ea38d5bcc192","study_id":"6197b3f67c2b5cd3b6d9596a","session_id":"619beefc9a3d9c4719aacb9a","condition":"contingent","relevant_dimensions":["pattern","legs"],"bee_group":{"antennae":"X","wings":"X","pattern":"D","legs":"F"},"action":"harvest","summary":"good-harvest","bonus":1.320000000000001},{"rt":926.1999999284744,"stimulus":"\n                    <p><b>Action: <em>harvest</em></b></p>\n                    <p>This is the bee that you just saw.</p>\n                    <img src=\"bees-with-color/bee-B2DM.svg\" width=\"200\">\n                    <p><span class=\"greenText\"><b>Successful harvest!</b></span><br>Your pay has increased by $0.02. Your bonus pay is now $0.72.</p>\n            ","response":0,"trial_type":"html-button-response","trial_index":76,"time_elapsed":314672,"internal_node_id":"0.0-4.0-1.34","subject_id":"5ef698a927c8ea38d5bcc192","study_id":"6197b3f67c2b5cd3b6d9596a","session_id":"619beefc9a3d9c4719aacb9a","condition":"contingent","relevant_dimensions":["pattern","legs"],"bee_group":{"antennae":"X","wings":"X","pattern":"D","legs":"F"},"bonus":1.320000000000001},{"rt":1038,"stimulus":"bees-with-color/bee-A1SM.svg","response":0,"trial_type":"image-button-response","trial_index":77,"time_elapsed":315713,"internal_node_id":"0.0-4.0-0.35","subject_id":"5ef698a927c8ea38d5bcc192","study_id":"6197b3f67c2b5cd3b6d9596a","session_id":"619beefc9a3d9c4719aacb9a","condition":"contingent","relevant_dimensions":["pattern","legs"],"bee_group":{"antennae":"X","wings":"X","pattern":"D","legs":"F"},"action":"harvest","summary":"good-harvest","bonus":1.320000000000001},{"rt":765.5,"stimulus":"\n                    <p><b>Action: <em>harvest</em></b></p>\n                    <p>This is the bee that you just saw.</p>\n                    <img src=\"bees-with-color/bee-A1SM.svg\" width=\"200\">\n                    <p><span class=\"greenText\"><b>Successful harvest!</b></span><br>Your pay has increased by $0.02. Your bonus pay is now $0.74.</p>\n            ","response":0,"trial_type":"html-button-response","trial_index":78,"time_elapsed":316480,"internal_node_id":"0.0-4.0-1.35","subject_id":"5ef698a927c8ea38d5bcc192","study_id":"6197b3f67c2b5cd3b6d9596a","session_id":"619beefc9a3d9c4719aacb9a","condition":"contingent","relevant_dimensions":["pattern","legs"],"bee_group":{"antennae":"X","wings":"X","pattern":"D","legs":"F"},"bonus":1.320000000000001},{"rt":1006.2999999523163,"stimulus":"bees-with-color/bee-B1SF.svg","response":1,"trial_type":"image-button-response","trial_index":79,"time_elapsed":317488,"internal_node_id":"0.0-4.0-0.36","subject_id":"5ef698a927c8ea38d5bcc192","study_id":"6197b3f67c2b5cd3b6d9596a","session_id":"619beefc9a3d9c4719aacb9a","condition":"contingent","relevant_dimensions":["pattern","legs"],"bee_group":{"antennae":"X","wings":"X","pattern":"D","legs":"F"},"action":"avoid","summary":"bad-avoid","bonus":1.320000000000001},{"rt":925.9000000953674,"stimulus":"\n                    <p><b>Action: <em>avoid</em></b></p>\n                    <p>This is the bee that you just saw.</p>\n                    <img src=\"bees-with-color/bee-B1SF.svg\" width=\"200\">\n                    <p><br>Your bonus pay is unchanged, and remains at $0.74.</p>\n            ","response":0,"trial_type":"html-button-response","trial_index":80,"time_elapsed":318416,"internal_node_id":"0.0-4.0-1.36","subject_id":"5ef698a927c8ea38d5bcc192","study_id":"6197b3f67c2b5cd3b6d9596a","session_id":"619beefc9a3d9c4719aacb9a","condition":"contingent","relevant_dimensions":["pattern","legs"],"bee_group":{"antennae":"X","wings":"X","pattern":"D","legs":"F"},"bonus":1.320000000000001},{"rt":1454.2999999523163,"stimulus":"bees-with-color/bee-B1DF.svg","response":1,"trial_type":"image-button-response","trial_index":81,"time_elapsed":319873,"internal_node_id":"0.0-4.0-0.37","subject_id":"5ef698a927c8ea38d5bcc192","study_id":"6197b3f67c2b5cd3b6d9596a","session_id":"619beefc9a3d9c4719aacb9a","condition":"contingent","relevant_dimensions":["pattern","legs"],"bee_group":{"antennae":"X","wings":"X","pattern":"D","legs":"F"},"action":"avoid","summary":"good-avoid","bonus":1.320000000000001},{"rt":1021.3000000715256,"stimulus":"\n                    <p><b>Action: <em>avoid</em></b></p>\n                    <p>This is the bee that you just saw.</p>\n                    <img src=\"bees-with-color/bee-B1DF.svg\" width=\"200\">\n                    <p><br>Your bonus pay is unchanged, and remains at $0.74.</p>\n            ","response":0,"trial_type":"html-button-response","trial_index":82,"time_elapsed":320896,"internal_node_id":"0.0-4.0-1.37","subject_id":"5ef698a927c8ea38d5bcc192","study_id":"6197b3f67c2b5cd3b6d9596a","session_id":"619beefc9a3d9c4719aacb9a","condition":"contingent","relevant_dimensions":["pattern","legs"],"bee_group":{"antennae":"X","wings":"X","pattern":"D","legs":"F"},"bonus":1.320000000000001},{"rt":1334.2999999523163,"stimulus":"bees-with-color/bee-A2SF.svg","response":1,"trial_type":"image-button-response","trial_index":83,"time_elapsed":322232,"internal_node_id":"0.0-4.0-0.38","subject_id":"5ef698a927c8ea38d5bcc192","study_id":"6197b3f67c2b5cd3b6d9596a","session_id":"619beefc9a3d9c4719aacb9a","condition":"contingent","relevant_dimensions":["pattern","legs"],"bee_group":{"antennae":"X","wings":"X","pattern":"D","legs":"F"},"action":"avoid","summary":"bad-avoid","bonus":1.320000000000001},{"rt":949.8999999761581,"stimulus":"\n                    <p><b>Action: <em>avoid</em></b></p>\n                    <p>This is the bee that you just saw.</p>\n                    <img src=\"bees-with-color/bee-A2SF.svg\" width=\"200\">\n                    <p><br>Your bonus pay is unchanged, and remains at $0.74.</p>\n            ","response":0,"trial_type":"html-button-response","trial_index":84,"time_elapsed":323184,"internal_node_id":"0.0-4.0-1.38","subject_id":"5ef698a927c8ea38d5bcc192","study_id":"6197b3f67c2b5cd3b6d9596a","session_id":"619beefc9a3d9c4719aacb9a","condition":"contingent","relevant_dimensions":["pattern","legs"],"bee_group":{"antennae":"X","wings":"X","pattern":"D","legs":"F"},"bonus":1.320000000000001},{"rt":1077.3999999761581,"stimulus":"bees-with-color/bee-A1DM.svg","response":0,"trial_type":"image-button-response","trial_index":85,"time_elapsed":324264,"internal_node_id":"0.0-4.0-0.39","subject_id":"5ef698a927c8ea38d5bcc192","study_id":"6197b3f67c2b5cd3b6d9596a","session_id":"619beefc9a3d9c4719aacb9a","condition":"contingent","relevant_dimensions":["pattern","legs"],"bee_group":{"antennae":"X","wings":"X","pattern":"D","legs":"F"},"action":"harvest","summary":"good-harvest","bonus":1.320000000000001},{"rt":749.7999999523163,"stimulus":"\n                    <p><b>Action: <em>harvest</em></b></p>\n                    <p>This is the bee that you just saw.</p>\n                    <img src=\"bees-with-color/bee-A1DM.svg\" width=\"200\">\n                    <p><span class=\"greenText\"><b>Successful harvest!</b></span><br>Your pay has increased by $0.02. Your bonus pay is now $0.76.</p>\n            ","response":0,"trial_type":"html-button-response","trial_index":86,"time_elapsed":325016,"internal_node_id":"0.0-4.0-1.39","subject_id":"5ef698a927c8ea38d5bcc192","study_id":"6197b3f67c2b5cd3b6d9596a","session_id":"619beefc9a3d9c4719aacb9a","condition":"contingent","relevant_dimensions":["pattern","legs"],"bee_group":{"antennae":"X","wings":"X","pattern":"D","legs":"F"},"bonus":1.320000000000001},{"rt":806.6000000238419,"stimulus":"bees-with-color/bee-B1SM.svg","response":0,"trial_type":"image-button-response","trial_index":87,"time_elapsed":325824,"internal_node_id":"0.0-4.0-0.40","subject_id":"5ef698a927c8ea38d5bcc192","study_id":"6197b3f67c2b5cd3b6d9596a","session_id":"619beefc9a3d9c4719aacb9a","condition":"contingent","relevant_dimensions":["pattern","legs"],"bee_group":{"antennae":"X","wings":"X","pattern":"D","legs":"F"},"action":"harvest","summary":"good-harvest","bonus":1.320000000000001},{"rt":814.2000000476837,"stimulus":"\n                    <p><b>Action: <em>harvest</em></b></p>\n                    <p>This is the bee that you just saw.</p>\n                    <img src=\"bees-with-color/bee-B1SM.svg\" width=\"200\">\n                    <p><span class=\"greenText\"><b>Successful harvest!</b></span><br>Your pay has increased by $0.02. Your bonus pay is now $0.78.</p>\n            ","response":0,"trial_type":"html-button-response","trial_index":88,"time_elapsed":326640,"internal_node_id":"0.0-4.0-1.40","subject_id":"5ef698a927c8ea38d5bcc192","study_id":"6197b3f67c2b5cd3b6d9596a","session_id":"619beefc9a3d9c4719aacb9a","condition":"contingent","relevant_dimensions":["pattern","legs"],"bee_group":{"antennae":"X","wings":"X","pattern":"D","legs":"F"},"bonus":1.320000000000001},{"rt":1198.6000000238419,"stimulus":"bees-with-color/bee-A1SF.svg","response":1,"trial_type":"image-button-response","trial_index":89,"time_elapsed":327840,"internal_node_id":"0.0-4.0-0.41","subject_id":"5ef698a927c8ea38d5bcc192","study_id":"6197b3f67c2b5cd3b6d9596a","session_id":"619beefc9a3d9c4719aacb9a","condition":"contingent","relevant_dimensions":["pattern","legs"],"bee_group":{"antennae":"X","wings":"X","pattern":"D","legs":"F"},"action":"avoid","summary":"bad-avoid","bonus":1.320000000000001},{"rt":1574.1000000238419,"stimulus":"\n                    <p><b>Action: <em>avoid</em></b></p>\n                    <p>This is the bee that you just saw.</p>\n                    <img src=\"bees-with-color/bee-A1SF.svg\" width=\"200\">\n                    <p><br>Your bonus pay is unchanged, and remains at $0.78.</p>\n            ","response":0,"trial_type":"html-button-response","trial_index":90,"time_elapsed":329416,"internal_node_id":"0.0-4.0-1.41","subject_id":"5ef698a927c8ea38d5bcc192","study_id":"6197b3f67c2b5cd3b6d9596a","session_id":"619beefc9a3d9c4719aacb9a","condition":"contingent","relevant_dimensions":["pattern","legs"],"bee_group":{"antennae":"X","wings":"X","pattern":"D","legs":"F"},"bonus":1.320000000000001},{"rt":1422.1999999284744,"stimulus":"bees-with-color/bee-A2SM.svg","response":0,"trial_type":"image-button-response","trial_index":91,"time_elapsed":330840,"internal_node_id":"0.0-4.0-0.42","subject_id":"5ef698a927c8ea38d5bcc192","study_id":"6197b3f67c2b5cd3b6d9596a","session_id":"619beefc9a3d9c4719aacb9a","condition":"contingent","relevant_dimensions":["pattern","legs"],"bee_group":{"antennae":"X","wings":"X","pattern":"D","legs":"F"},"action":"harvest","summary":"good-harvest","bonus":1.320000000000001},{"rt":1086,"stimulus":"\n                    <p><b>Action: <em>harvest</em></b></p>\n                    <p>This is the bee that you just saw.</p>\n                    <img src=\"bees-with-color/bee-A2SM.svg\" width=\"200\">\n                    <p><span class=\"greenText\"><b>Successful harvest!</b></span><br>Your pay has increased by $0.02. Your bonus pay is now $0.80.</p>\n            ","response":0,"trial_type":"html-button-response","trial_index":92,"time_elapsed":331928,"internal_node_id":"0.0-4.0-1.42","subject_id":"5ef698a927c8ea38d5bcc192","study_id":"6197b3f67c2b5cd3b6d9596a","session_id":"619beefc9a3d9c4719aacb9a","condition":"contingent","relevant_dimensions":["pattern","legs"],"bee_group":{"antennae":"X","wings":"X","pattern":"D","legs":"F"},"bonus":1.320000000000001},{"rt":2030.3999999761581,"stimulus":"bees-with-color/bee-B2SF.svg","response":1,"trial_type":"image-button-response","trial_index":93,"time_elapsed":333960,"internal_node_id":"0.0-4.0-0.43","subject_id":"5ef698a927c8ea38d5bcc192","study_id":"6197b3f67c2b5cd3b6d9596a","session_id":"619beefc9a3d9c4719aacb9a","condition":"contingent","relevant_dimensions":["pattern","legs"],"bee_group":{"antennae":"X","wings":"X","pattern":"D","legs":"F"},"action":"avoid","summary":"bad-avoid","bonus":1.320000000000001},{"rt":1374.6999999284744,"stimulus":"\n                    <p><b>Action: <em>avoid</em></b></p>\n                    <p>This is the bee that you just saw.</p>\n                    <img src=\"bees-with-color/bee-B2SF.svg\" width=\"200\">\n                    <p><br>Your bonus pay is unchanged, and remains at $0.80.</p>\n            ","response":0,"trial_type":"html-button-response","trial_index":94,"time_elapsed":335336,"internal_node_id":"0.0-4.0-1.43","subject_id":"5ef698a927c8ea38d5bcc192","study_id":"6197b3f67c2b5cd3b6d9596a","session_id":"619beefc9a3d9c4719aacb9a","condition":"contingent","relevant_dimensions":["pattern","legs"],"bee_group":{"antennae":"X","wings":"X","pattern":"D","legs":"F"},"bonus":1.320000000000001},{"rt":965.7999999523163,"stimulus":"bees-with-color/bee-B1DM.svg","response":0,"trial_type":"image-button-response","trial_index":95,"time_elapsed":336304,"internal_node_id":"0.0-4.0-0.44","subject_id":"5ef698a927c8ea38d5bcc192","study_id":"6197b3f67c2b5cd3b6d9596a","session_id":"619beefc9a3d9c4719aacb9a","condition":"contingent","relevant_dimensions":["pattern","legs"],"bee_group":{"antennae":"X","wings":"X","pattern":"D","legs":"F"},"action":"harvest","summary":"good-harvest","bonus":1.320000000000001},{"rt":806.1000000238419,"stimulus":"\n                    <p><b>Action: <em>harvest</em></b></p>\n                    <p>This is the bee that you just saw.</p>\n                    <img src=\"bees-with-color/bee-B1DM.svg\" width=\"200\">\n                    <p><span class=\"greenText\"><b>Successful harvest!</b></span><br>Your pay has increased by $0.02. Your bonus pay is now $0.82.</p>\n            ","response":0,"trial_type":"html-button-response","trial_index":96,"time_elapsed":337112,"internal_node_id":"0.0-4.0-1.44","subject_id":"5ef698a927c8ea38d5bcc192","study_id":"6197b3f67c2b5cd3b6d9596a","session_id":"619beefc9a3d9c4719aacb9a","condition":"contingent","relevant_dimensions":["pattern","legs"],"bee_group":{"antennae":"X","wings":"X","pattern":"D","legs":"F"},"bonus":1.320000000000001},{"rt":1110.6000000238419,"stimulus":"bees-with-color/bee-B2SM.svg","response":0,"trial_type":"image-button-response","trial_index":97,"time_elapsed":338224,"internal_node_id":"0.0-4.0-0.45","subject_id":"5ef698a927c8ea38d5bcc192","study_id":"6197b3f67c2b5cd3b6d9596a","session_id":"619beefc9a3d9c4719aacb9a","condition":"contingent","relevant_dimensions":["pattern","legs"],"bee_group":{"antennae":"X","wings":"X","pattern":"D","legs":"F"},"action":"harvest","summary":"good-harvest","bonus":1.320000000000001},{"rt":854.5,"stimulus":"\n                    <p><b>Action: <em>harvest</em></b></p>\n                    <p>This is the bee that you just saw.</p>\n                    <img src=\"bees-with-color/bee-B2SM.svg\" width=\"200\">\n                    <p><span class=\"greenText\"><b>Successful harvest!</b></span><br>Your pay has increased by $0.02. Your bonus pay is now $0.84.</p>\n            ","response":0,"trial_type":"html-button-response","trial_index":98,"time_elapsed":339080,"internal_node_id":"0.0-4.0-1.45","subject_id":"5ef698a927c8ea38d5bcc192","study_id":"6197b3f67c2b5cd3b6d9596a","session_id":"619beefc9a3d9c4719aacb9a","condition":"contingent","relevant_dimensions":["pattern","legs"],"bee_group":{"antennae":"X","wings":"X","pattern":"D","legs":"F"},"bonus":1.320000000000001},{"rt":1078.5,"stimulus":"bees-with-color/bee-A1DF.svg","response":1,"trial_type":"image-button-response","trial_index":99,"time_elapsed":340160,"internal_node_id":"0.0-4.0-0.46","subject_id":"5ef698a927c8ea38d5bcc192","study_id":"6197b3f67c2b5cd3b6d9596a","session_id":"619beefc9a3d9c4719aacb9a","condition":"contingent","relevant_dimensions":["pattern","legs"],"bee_group":{"antennae":"X","wings":"X","pattern":"D","legs":"F"},"action":"avoid","summary":"good-avoid","bonus":1.320000000000001},{"rt":909.8000000715256,"stimulus":"\n                    <p><b>Action: <em>avoid</em></b></p>\n                    <p>This is the bee that you just saw.</p>\n                    <img src=\"bees-with-color/bee-A1DF.svg\" width=\"200\">\n                    <p><br>Your bonus pay is unchanged, and remains at $0.84.</p>\n            ","response":0,"trial_type":"html-button-response","trial_index":100,"time_elapsed":341072,"internal_node_id":"0.0-4.0-1.46","subject_id":"5ef698a927c8ea38d5bcc192","study_id":"6197b3f67c2b5cd3b6d9596a","session_id":"619beefc9a3d9c4719aacb9a","condition":"contingent","relevant_dimensions":["pattern","legs"],"bee_group":{"antennae":"X","wings":"X","pattern":"D","legs":"F"},"bonus":1.320000000000001},{"rt":1887,"stimulus":"bees-with-color/bee-A2DF.svg","response":1,"trial_type":"image-button-response","trial_index":101,"time_elapsed":342960,"internal_node_id":"0.0-4.0-0.47","subject_id":"5ef698a927c8ea38d5bcc192","study_id":"6197b3f67c2b5cd3b6d9596a","session_id":"619beefc9a3d9c4719aacb9a","condition":"contingent","relevant_dimensions":["pattern","legs"],"bee_group":{"antennae":"X","wings":"X","pattern":"D","legs":"F"},"action":"avoid","summary":"good-avoid","bonus":1.320000000000001},{"rt":894.1999999284744,"stimulus":"\n                    <p><b>Action: <em>avoid</em></b></p>\n                    <p>This is the bee that you just saw.</p>\n                    <img src=\"bees-with-color/bee-A2DF.svg\" width=\"200\">\n                    <p><br>Your bonus pay is unchanged, and remains at $0.84.</p>\n            ","response":0,"trial_type":"html-button-response","trial_index":102,"time_elapsed":343856,"internal_node_id":"0.0-4.0-1.47","subject_id":"5ef698a927c8ea38d5bcc192","study_id":"6197b3f67c2b5cd3b6d9596a","session_id":"619beefc9a3d9c4719aacb9a","condition":"contingent","relevant_dimensions":["pattern","legs"],"bee_group":{"antennae":"X","wings":"X","pattern":"D","legs":"F"},"bonus":1.320000000000001},{"rt":741.3000000715256,"stimulus":"bees-with-color/bee-A1DM.svg","response":0,"trial_type":"image-button-response","trial_index":103,"time_elapsed":344600,"internal_node_id":"0.0-4.0-0.48","subject_id":"5ef698a927c8ea38d5bcc192","study_id":"6197b3f67c2b5cd3b6d9596a","session_id":"619beefc9a3d9c4719aacb9a","condition":"contingent","relevant_dimensions":["pattern","legs"],"bee_group":{"antennae":"X","wings":"X","pattern":"D","legs":"F"},"action":"harvest","summary":"good-harvest","bonus":1.320000000000001},{"rt":830.1000000238419,"stimulus":"\n                    <p><b>Action: <em>harvest</em></b></p>\n                    <p>This is the bee that you just saw.</p>\n                    <img src=\"bees-with-color/bee-A1DM.svg\" width=\"200\">\n                    <p><span class=\"greenText\"><b>Successful harvest!</b></span><br>Your pay has increased by $0.02. Your bonus pay is now $0.86.</p>\n            ","response":0,"trial_type":"html-button-response","trial_index":104,"time_elapsed":345432,"internal_node_id":"0.0-4.0-1.48","subject_id":"5ef698a927c8ea38d5bcc192","study_id":"6197b3f67c2b5cd3b6d9596a","session_id":"619beefc9a3d9c4719aacb9a","condition":"contingent","relevant_dimensions":["pattern","legs"],"bee_group":{"antennae":"X","wings":"X","pattern":"D","legs":"F"},"bonus":1.320000000000001},{"rt":943.1000000238419,"stimulus":"bees-with-color/bee-B2SM.svg","response":0,"trial_type":"image-button-response","trial_index":105,"time_elapsed":346377,"internal_node_id":"0.0-4.0-0.49","subject_id":"5ef698a927c8ea38d5bcc192","study_id":"6197b3f67c2b5cd3b6d9596a","session_id":"619beefc9a3d9c4719aacb9a","condition":"contingent","relevant_dimensions":["pattern","legs"],"bee_group":{"antennae":"X","wings":"X","pattern":"D","legs":"F"},"action":"harvest","summary":"good-harvest","bonus":1.320000000000001},{"rt":869.7999999523163,"stimulus":"\n                    <p><b>Action: <em>harvest</em></b></p>\n                    <p>This is the bee that you just saw.</p>\n                    <img src=\"bees-with-color/bee-B2SM.svg\" width=\"200\">\n                    <p><span class=\"greenText\"><b>Successful harvest!</b></span><br>Your pay has increased by $0.02. Your bonus pay is now $0.88.</p>\n            ","response":0,"trial_type":"html-button-response","trial_index":106,"time_elapsed":347249,"internal_node_id":"0.0-4.0-1.49","subject_id":"5ef698a927c8ea38d5bcc192","study_id":"6197b3f67c2b5cd3b6d9596a","session_id":"619beefc9a3d9c4719aacb9a","condition":"contingent","relevant_dimensions":["pattern","legs"],"bee_group":{"antennae":"X","wings":"X","pattern":"D","legs":"F"},"bonus":1.320000000000001},{"rt":3094.5,"stimulus":"bees-with-color/bee-B2DF.svg","response":1,"trial_type":"image-button-response","trial_index":107,"time_elapsed":350345,"internal_node_id":"0.0-4.0-0.50","subject_id":"5ef698a927c8ea38d5bcc192","study_id":"6197b3f67c2b5cd3b6d9596a","session_id":"619beefc9a3d9c4719aacb9a","condition":"contingent","relevant_dimensions":["pattern","legs"],"bee_group":{"antennae":"X","wings":"X","pattern":"D","legs":"F"},"action":"avoid","summary":"good-avoid","bonus":1.320000000000001},{"rt":862.2999999523163,"stimulus":"\n                    <p><b>Action: <em>avoid</em></b></p>\n                    <p>This is the bee that you just saw.</p>\n                    <img src=\"bees-with-color/bee-B2DF.svg\" width=\"200\">\n                    <p><br>Your bonus pay is unchanged, and remains at $0.88.</p>\n            ","response":0,"trial_type":"html-button-response","trial_index":108,"time_elapsed":351209,"internal_node_id":"0.0-4.0-1.50","subject_id":"5ef698a927c8ea38d5bcc192","study_id":"6197b3f67c2b5cd3b6d9596a","session_id":"619beefc9a3d9c4719aacb9a","condition":"contingent","relevant_dimensions":["pattern","legs"],"bee_group":{"antennae":"X","wings":"X","pattern":"D","legs":"F"},"bonus":1.320000000000001},{"rt":1133.7000000476837,"stimulus":"bees-with-color/bee-A1DF.svg","response":1,"trial_type":"image-button-response","trial_index":109,"time_elapsed":352344,"internal_node_id":"0.0-4.0-0.51","subject_id":"5ef698a927c8ea38d5bcc192","study_id":"6197b3f67c2b5cd3b6d9596a","session_id":"619beefc9a3d9c4719aacb9a","condition":"contingent","relevant_dimensions":["pattern","legs"],"bee_group":{"antennae":"X","wings":"X","pattern":"D","legs":"F"},"action":"avoid","summary":"good-avoid","bonus":1.320000000000001},{"rt":742,"stimulus":"\n                    <p><b>Action: <em>avoid</em></b></p>\n                    <p>This is the bee that you just saw.</p>\n                    <img src=\"bees-with-color/bee-A1DF.svg\" width=\"200\">\n                    <p><br>Your bonus pay is unchanged, and remains at $0.88.</p>\n            ","response":0,"trial_type":"html-button-response","trial_index":110,"time_elapsed":353088,"internal_node_id":"0.0-4.0-1.51","subject_id":"5ef698a927c8ea38d5bcc192","study_id":"6197b3f67c2b5cd3b6d9596a","session_id":"619beefc9a3d9c4719aacb9a","condition":"contingent","relevant_dimensions":["pattern","legs"],"bee_group":{"antennae":"X","wings":"X","pattern":"D","legs":"F"},"bonus":1.320000000000001},{"rt":1566.7000000476837,"stimulus":"bees-with-color/bee-B2DM.svg","response":0,"trial_type":"image-button-response","trial_index":111,"time_elapsed":354657,"internal_node_id":"0.0-4.0-0.52","subject_id":"5ef698a927c8ea38d5bcc192","study_id":"6197b3f67c2b5cd3b6d9596a","session_id":"619beefc9a3d9c4719aacb9a","condition":"contingent","relevant_dimensions":["pattern","legs"],"bee_group":{"antennae":"X","wings":"X","pattern":"D","legs":"F"},"action":"harvest","summary":"good-harvest","bonus":1.320000000000001},{"rt":1238,"stimulus":"\n                    <p><b>Action: <em>harvest</em></b></p>\n                    <p>This is the bee that you just saw.</p>\n                    <img src=\"bees-with-color/bee-B2DM.svg\" width=\"200\">\n                    <p><span class=\"greenText\"><b>Successful harvest!</b></span><br>Your pay has increased by $0.02. Your bonus pay is now $0.90.</p>\n            ","response":0,"trial_type":"html-button-response","trial_index":112,"time_elapsed":355897,"internal_node_id":"0.0-4.0-1.52","subject_id":"5ef698a927c8ea38d5bcc192","study_id":"6197b3f67c2b5cd3b6d9596a","session_id":"619beefc9a3d9c4719aacb9a","condition":"contingent","relevant_dimensions":["pattern","legs"],"bee_group":{"antennae":"X","wings":"X","pattern":"D","legs":"F"},"bonus":1.320000000000001},{"rt":861.7000000476837,"stimulus":"bees-with-color/bee-B1SM.svg","response":0,"trial_type":"image-button-response","trial_index":113,"time_elapsed":356761,"internal_node_id":"0.0-4.0-0.53","subject_id":"5ef698a927c8ea38d5bcc192","study_id":"6197b3f67c2b5cd3b6d9596a","session_id":"619beefc9a3d9c4719aacb9a","condition":"contingent","relevant_dimensions":["pattern","legs"],"bee_group":{"antennae":"X","wings":"X","pattern":"D","legs":"F"},"action":"harvest","summary":"good-harvest","bonus":1.320000000000001},{"rt":870,"stimulus":"\n                    <p><b>Action: <em>harvest</em></b></p>\n                    <p>This is the bee that you just saw.</p>\n                    <img src=\"bees-with-color/bee-B1SM.svg\" width=\"200\">\n                    <p><span class=\"greenText\"><b>Successful harvest!</b></span><br>Your pay has increased by $0.02. Your bonus pay is now $0.92.</p>\n            ","response":0,"trial_type":"html-button-response","trial_index":114,"time_elapsed":357633,"internal_node_id":"0.0-4.0-1.53","subject_id":"5ef698a927c8ea38d5bcc192","study_id":"6197b3f67c2b5cd3b6d9596a","session_id":"619beefc9a3d9c4719aacb9a","condition":"contingent","relevant_dimensions":["pattern","legs"],"bee_group":{"antennae":"X","wings":"X","pattern":"D","legs":"F"},"bonus":1.320000000000001},{"rt":1662.3000000715256,"stimulus":"bees-with-color/bee-A1SF.svg","response":1,"trial_type":"image-button-response","trial_index":115,"time_elapsed":359297,"internal_node_id":"0.0-4.0-0.54","subject_id":"5ef698a927c8ea38d5bcc192","study_id":"6197b3f67c2b5cd3b6d9596a","session_id":"619beefc9a3d9c4719aacb9a","condition":"contingent","relevant_dimensions":["pattern","legs"],"bee_group":{"antennae":"X","wings":"X","pattern":"D","legs":"F"},"action":"avoid","summary":"bad-avoid","bonus":1.320000000000001},{"rt":1093.8999999761581,"stimulus":"\n                    <p><b>Action: <em>avoid</em></b></p>\n                    <p>This is the bee that you just saw.</p>\n                    <img src=\"bees-with-color/bee-A1SF.svg\" width=\"200\">\n                    <p><br>Your bonus pay is unchanged, and remains at $0.92.</p>\n            ","response":0,"trial_type":"html-button-response","trial_index":116,"time_elapsed":360393,"internal_node_id":"0.0-4.0-1.54","subject_id":"5ef698a927c8ea38d5bcc192","study_id":"6197b3f67c2b5cd3b6d9596a","session_id":"619beefc9a3d9c4719aacb9a","condition":"contingent","relevant_dimensions":["pattern","legs"],"bee_group":{"antennae":"X","wings":"X","pattern":"D","legs":"F"},"bonus":1.320000000000001},{"rt":1086.4000000953674,"stimulus":"bees-with-color/bee-A1SM.svg","response":0,"trial_type":"image-button-response","trial_index":117,"time_elapsed":361481,"internal_node_id":"0.0-4.0-0.55","subject_id":"5ef698a927c8ea38d5bcc192","study_id":"6197b3f67c2b5cd3b6d9596a","session_id":"619beefc9a3d9c4719aacb9a","condition":"contingent","relevant_dimensions":["pattern","legs"],"bee_group":{"antennae":"X","wings":"X","pattern":"D","legs":"F"},"action":"harvest","summary":"good-harvest","bonus":1.320000000000001},{"rt":1790.8000000715256,"stimulus":"\n                    <p><b>Action: <em>harvest</em></b></p>\n                    <p>This is the bee that you just saw.</p>\n                    <img src=\"bees-with-color/bee-A1SM.svg\" width=\"200\">\n                    <p><span class=\"greenText\"><b>Successful harvest!</b></span><br>Your pay has increased by $0.02. Your bonus pay is now $0.94.</p>\n            ","response":0,"trial_type":"html-button-response","trial_index":118,"time_elapsed":363274,"internal_node_id":"0.0-4.0-1.55","subject_id":"5ef698a927c8ea38d5bcc192","study_id":"6197b3f67c2b5cd3b6d9596a","session_id":"619beefc9a3d9c4719aacb9a","condition":"contingent","relevant_dimensions":["pattern","legs"],"bee_group":{"antennae":"X","wings":"X","pattern":"D","legs":"F"},"bonus":1.320000000000001},{"rt":1101.4000000953674,"stimulus":"bees-with-color/bee-B1DM.svg","response":0,"trial_type":"image-button-response","trial_index":119,"time_elapsed":364377,"internal_node_id":"0.0-4.0-0.56","subject_id":"5ef698a927c8ea38d5bcc192","study_id":"6197b3f67c2b5cd3b6d9596a","session_id":"619beefc9a3d9c4719aacb9a","condition":"contingent","relevant_dimensions":["pattern","legs"],"bee_group":{"antennae":"X","wings":"X","pattern":"D","legs":"F"},"action":"harvest","summary":"good-harvest","bonus":1.320000000000001},{"rt":845.9000000953674,"stimulus":"\n                    <p><b>Action: <em>harvest</em></b></p>\n                    <p>This is the bee that you just saw.</p>\n                    <img src=\"bees-with-color/bee-B1DM.svg\" width=\"200\">\n                    <p><span class=\"greenText\"><b>Successful harvest!</b></span><br>Your pay has increased by $0.02. Your bonus pay is now $0.96.</p>\n            ","response":0,"trial_type":"html-button-response","trial_index":120,"time_elapsed":365225,"internal_node_id":"0.0-4.0-1.56","subject_id":"5ef698a927c8ea38d5bcc192","study_id":"6197b3f67c2b5cd3b6d9596a","session_id":"619beefc9a3d9c4719aacb9a","condition":"contingent","relevant_dimensions":["pattern","legs"],"bee_group":{"antennae":"X","wings":"X","pattern":"D","legs":"F"},"bonus":1.320000000000001},{"rt":1022.2000000476837,"stimulus":"bees-with-color/bee-B1DF.svg","response":1,"trial_type":"image-button-response","trial_index":121,"time_elapsed":366249,"internal_node_id":"0.0-4.0-0.57","subject_id":"5ef698a927c8ea38d5bcc192","study_id":"6197b3f67c2b5cd3b6d9596a","session_id":"619beefc9a3d9c4719aacb9a","condition":"contingent","relevant_dimensions":["pattern","legs"],"bee_group":{"antennae":"X","wings":"X","pattern":"D","legs":"F"},"action":"avoid","summary":"good-avoid","bonus":1.320000000000001},{"rt":926,"stimulus":"\n                    <p><b>Action: <em>avoid</em></b></p>\n                    <p>This is the bee that you just saw.</p>\n                    <img src=\"bees-with-color/bee-B1DF.svg\" width=\"200\">\n                    <p><br>Your bonus pay is unchanged, and remains at $0.96.</p>\n            ","response":0,"trial_type":"html-button-response","trial_index":122,"time_elapsed":367177,"internal_node_id":"0.0-4.0-1.57","subject_id":"5ef698a927c8ea38d5bcc192","study_id":"6197b3f67c2b5cd3b6d9596a","session_id":"619beefc9a3d9c4719aacb9a","condition":"contingent","relevant_dimensions":["pattern","legs"],"bee_group":{"antennae":"X","wings":"X","pattern":"D","legs":"F"},"bonus":1.320000000000001},{"rt":813.8999999761581,"stimulus":"bees-with-color/bee-B2SF.svg","response":1,"trial_type":"image-button-response","trial_index":123,"time_elapsed":367993,"internal_node_id":"0.0-4.0-0.58","subject_id":"5ef698a927c8ea38d5bcc192","study_id":"6197b3f67c2b5cd3b6d9596a","session_id":"619beefc9a3d9c4719aacb9a","condition":"contingent","relevant_dimensions":["pattern","legs"],"bee_group":{"antennae":"X","wings":"X","pattern":"D","legs":"F"},"action":"avoid","summary":"bad-avoid","bonus":1.320000000000001},{"rt":597.3999999761581,"stimulus":"\n                    <p><b>Action: <em>avoid</em></b></p>\n                    <p>This is the bee that you just saw.</p>\n                    <img src=\"bees-with-color/bee-B2SF.svg\" width=\"200\">\n                    <p><br>Your bonus pay is unchanged, and remains at $0.96.</p>\n            ","response":0,"trial_type":"html-button-response","trial_index":124,"time_elapsed":368592,"internal_node_id":"0.0-4.0-1.58","subject_id":"5ef698a927c8ea38d5bcc192","study_id":"6197b3f67c2b5cd3b6d9596a","session_id":"619beefc9a3d9c4719aacb9a","condition":"contingent","relevant_dimensions":["pattern","legs"],"bee_group":{"antennae":"X","wings":"X","pattern":"D","legs":"F"},"bonus":1.320000000000001},{"rt":854.2000000476837,"stimulus":"bees-with-color/bee-A2SF.svg","response":1,"trial_type":"image-button-response","trial_index":125,"time_elapsed":369449,"internal_node_id":"0.0-4.0-0.59","subject_id":"5ef698a927c8ea38d5bcc192","study_id":"6197b3f67c2b5cd3b6d9596a","session_id":"619beefc9a3d9c4719aacb9a","condition":"contingent","relevant_dimensions":["pattern","legs"],"bee_group":{"antennae":"X","wings":"X","pattern":"D","legs":"F"},"action":"avoid","summary":"bad-avoid","bonus":1.320000000000001},{"rt":797.8000000715256,"stimulus":"\n                    <p><b>Action: <em>avoid</em></b></p>\n                    <p>This is the bee that you just saw.</p>\n                    <img src=\"bees-with-color/bee-A2SF.svg\" width=\"200\">\n                    <p><br>Your bonus pay is unchanged, and remains at $0.96.</p>\n            ","response":0,"trial_type":"html-button-response","trial_index":126,"time_elapsed":370249,"internal_node_id":"0.0-4.0-1.59","subject_id":"5ef698a927c8ea38d5bcc192","study_id":"6197b3f67c2b5cd3b6d9596a","session_id":"619beefc9a3d9c4719aacb9a","condition":"contingent","relevant_dimensions":["pattern","legs"],"bee_group":{"antennae":"X","wings":"X","pattern":"D","legs":"F"},"bonus":1.320000000000001},{"rt":790.2999999523163,"stimulus":"bees-with-color/bee-A2SM.svg","response":0,"trial_type":"image-button-response","trial_index":127,"time_elapsed":371041,"internal_node_id":"0.0-4.0-0.60","subject_id":"5ef698a927c8ea38d5bcc192","study_id":"6197b3f67c2b5cd3b6d9596a","session_id":"619beefc9a3d9c4719aacb9a","condition":"contingent","relevant_dimensions":["pattern","legs"],"bee_group":{"antennae":"X","wings":"X","pattern":"D","legs":"F"},"action":"harvest","summary":"good-harvest","bonus":1.320000000000001},{"rt":1045.3999999761581,"stimulus":"\n                    <p><b>Action: <em>harvest</em></b></p>\n                    <p>This is the bee that you just saw.</p>\n                    <img src=\"bees-with-color/bee-A2SM.svg\" width=\"200\">\n                    <p><span class=\"greenText\"><b>Successful harvest!</b></span><br>Your pay has increased by $0.02. Your bonus pay is now $0.98.</p>\n            ","response":0,"trial_type":"html-button-response","trial_index":128,"time_elapsed":372089,"internal_node_id":"0.0-4.0-1.60","subject_id":"5ef698a927c8ea38d5bcc192","study_id":"6197b3f67c2b5cd3b6d9596a","session_id":"619beefc9a3d9c4719aacb9a","condition":"contingent","relevant_dimensions":["pattern","legs"],"bee_group":{"antennae":"X","wings":"X","pattern":"D","legs":"F"},"bonus":1.320000000000001},{"rt":1406.1000000238419,"stimulus":"bees-with-color/bee-A2DF.svg","response":1,"trial_type":"image-button-response","trial_index":129,"time_elapsed":373497,"internal_node_id":"0.0-4.0-0.61","subject_id":"5ef698a927c8ea38d5bcc192","study_id":"6197b3f67c2b5cd3b6d9596a","session_id":"619beefc9a3d9c4719aacb9a","condition":"contingent","relevant_dimensions":["pattern","legs"],"bee_group":{"antennae":"X","wings":"X","pattern":"D","legs":"F"},"action":"avoid","summary":"good-avoid","bonus":1.320000000000001},{"rt":694.0999999046326,"stimulus":"\n                    <p><b>Action: <em>avoid</em></b></p>\n                    <p>This is the bee that you just saw.</p>\n                    <img src=\"bees-with-color/bee-A2DF.svg\" width=\"200\">\n                    <p><br>Your bonus pay is unchanged, and remains at $0.98.</p>\n            ","response":0,"trial_type":"html-button-response","trial_index":130,"time_elapsed":374192,"internal_node_id":"0.0-4.0-1.61","subject_id":"5ef698a927c8ea38d5bcc192","study_id":"6197b3f67c2b5cd3b6d9596a","session_id":"619beefc9a3d9c4719aacb9a","condition":"contingent","relevant_dimensions":["pattern","legs"],"bee_group":{"antennae":"X","wings":"X","pattern":"D","legs":"F"},"bonus":1.320000000000001},{"rt":734.8999999761581,"stimulus":"bees-with-color/bee-A2DM.svg","response":0,"trial_type":"image-button-response","trial_index":131,"time_elapsed":374928,"internal_node_id":"0.0-4.0-0.62","subject_id":"5ef698a927c8ea38d5bcc192","study_id":"6197b3f67c2b5cd3b6d9596a","session_id":"619beefc9a3d9c4719aacb9a","condition":"contingent","relevant_dimensions":["pattern","legs"],"bee_group":{"antennae":"X","wings":"X","pattern":"D","legs":"F"},"action":"harvest","summary":"good-harvest","bonus":1.320000000000001},{"rt":1454.6000000238419,"stimulus":"\n                    <p><b>Action: <em>harvest</em></b></p>\n                    <p>This is the bee that you just saw.</p>\n                    <img src=\"bees-with-color/bee-A2DM.svg\" width=\"200\">\n                    <p><span class=\"greenText\"><b>Successful harvest!</b></span><br>Your pay has increased by $0.02. Your bonus pay is now $1.00.</p>\n            ","response":0,"trial_type":"html-button-response","trial_index":132,"time_elapsed":376385,"internal_node_id":"0.0-4.0-1.62","subject_id":"5ef698a927c8ea38d5bcc192","study_id":"6197b3f67c2b5cd3b6d9596a","session_id":"619beefc9a3d9c4719aacb9a","condition":"contingent","relevant_dimensions":["pattern","legs"],"bee_group":{"antennae":"X","wings":"X","pattern":"D","legs":"F"},"bonus":1.320000000000001},{"rt":3222.600000023842,"stimulus":"bees-with-color/bee-B1SF.svg","response":1,"trial_type":"image-button-response","trial_index":133,"time_elapsed":379609,"internal_node_id":"0.0-4.0-0.63","subject_id":"5ef698a927c8ea38d5bcc192","study_id":"6197b3f67c2b5cd3b6d9596a","session_id":"619beefc9a3d9c4719aacb9a","condition":"contingent","relevant_dimensions":["pattern","legs"],"bee_group":{"antennae":"X","wings":"X","pattern":"D","legs":"F"},"action":"avoid","summary":"bad-avoid","bonus":1.320000000000001},{"rt":941.9000000953674,"stimulus":"\n                    <p><b>Action: <em>avoid</em></b></p>\n                    <p>This is the bee that you just saw.</p>\n                    <img src=\"bees-with-color/bee-B1SF.svg\" width=\"200\">\n                    <p><br>Your bonus pay is unchanged, and remains at $1.00.</p>\n            ","response":0,"trial_type":"html-button-response","trial_index":134,"time_elapsed":380552,"internal_node_id":"0.0-4.0-1.63","subject_id":"5ef698a927c8ea38d5bcc192","study_id":"6197b3f67c2b5cd3b6d9596a","session_id":"619beefc9a3d9c4719aacb9a","condition":"contingent","relevant_dimensions":["pattern","legs"],"bee_group":{"antennae":"X","wings":"X","pattern":"D","legs":"F"},"bonus":1.320000000000001},{"rt":4763.100000023842,"stimulus":"You have completed the first part of this experiment.<br><br>You will now begin a shorter second part, in which you will receive no feedback.<br>The same rules regarding bonus pay apply.<br><br>Press any key to begin.","response":" ","trial_type":"html-keyboard-response","trial_index":135,"time_elapsed":385318,"internal_node_id":"0.0-5.0","subject_id":"5ef698a927c8ea38d5bcc192","study_id":"6197b3f67c2b5cd3b6d9596a","session_id":"619beefc9a3d9c4719aacb9a","condition":"contingent","relevant_dimensions":["pattern","legs"],"bee_group":{"antennae":"X","wings":"X","pattern":"D","legs":"F"},"bonus":1.320000000000001},{"rt":1800.6999999284744,"stimulus":"bees-with-color/bee-B2DM.svg","response":0,"trial_type":"image-button-response","trial_index":136,"time_elapsed":387139,"internal_node_id":"0.0-6.0-0.0","subject_id":"5ef698a927c8ea38d5bcc192","study_id":"6197b3f67c2b5cd3b6d9596a","session_id":"619beefc9a3d9c4719aacb9a","condition":"contingent","relevant_dimensions":["pattern","legs"],"bee_group":{"antennae":"X","wings":"X","pattern":"D","legs":"F"},"bonus":1.320000000000001},{"rt":1584.7000000476837,"stimulus":"bees-with-color/bee-A2SM.svg","response":0,"trial_type":"image-button-response","trial_index":137,"time_elapsed":388728,"internal_node_id":"0.0-6.0-0.1","subject_id":"5ef698a927c8ea38d5bcc192","study_id":"6197b3f67c2b5cd3b6d9596a","session_id":"619beefc9a3d9c4719aacb9a","condition":"contingent","relevant_dimensions":["pattern","legs"],"bee_group":{"antennae":"X","wings":"X","pattern":"D","legs":"F"},"bonus":1.320000000000001},{"rt":3291.7999999523163,"stimulus":"bees-with-color/bee-A1DM.svg","response":0,"trial_type":"image-button-response","trial_index":138,"time_elapsed":392025,"internal_node_id":"0.0-6.0-0.2","subject_id":"5ef698a927c8ea38d5bcc192","study_id":"6197b3f67c2b5cd3b6d9596a","session_id":"619beefc9a3d9c4719aacb9a","condition":"contingent","relevant_dimensions":["pattern","legs"],"bee_group":{"antennae":"X","wings":"X","pattern":"D","legs":"F"},"bonus":1.320000000000001},{"rt":1390,"stimulus":"bees-with-color/bee-A1DF.svg","response":1,"trial_type":"image-button-response","trial_index":139,"time_elapsed":393420,"internal_node_id":"0.0-6.0-0.3","subject_id":"5ef698a927c8ea38d5bcc192","study_id":"6197b3f67c2b5cd3b6d9596a","session_id":"619beefc9a3d9c4719aacb9a","condition":"contingent","relevant_dimensions":["pattern","legs"],"bee_group":{"antennae":"X","wings":"X","pattern":"D","legs":"F"},"bonus":1.320000000000001},{"rt":1475.5999999046326,"stimulus":"bees-with-color/bee-A2DM.svg","response":0,"trial_type":"image-button-response","trial_index":140,"time_elapsed":394901,"internal_node_id":"0.0-6.0-0.4","subject_id":"5ef698a927c8ea38d5bcc192","study_id":"6197b3f67c2b5cd3b6d9596a","session_id":"619beefc9a3d9c4719aacb9a","condition":"contingent","relevant_dimensions":["pattern","legs"],"bee_group":{"antennae":"X","wings":"X","pattern":"D","legs":"F"},"bonus":1.320000000000001},{"rt":1468.7000000476837,"stimulus":"bees-with-color/bee-A2DF.svg","response":1,"trial_type":"image-button-response","trial_index":141,"time_elapsed":396375,"internal_node_id":"0.0-6.0-0.5","subject_id":"5ef698a927c8ea38d5bcc192","study_id":"6197b3f67c2b5cd3b6d9596a","session_id":"619beefc9a3d9c4719aacb9a","condition":"contingent","relevant_dimensions":["pattern","legs"],"bee_group":{"antennae":"X","wings":"X","pattern":"D","legs":"F"},"bonus":1.320000000000001},{"rt":1142,"stimulus":"bees-with-color/bee-B1SF.svg","response":1,"trial_type":"image-button-response","trial_index":142,"time_elapsed":397522,"internal_node_id":"0.0-6.0-0.6","subject_id":"5ef698a927c8ea38d5bcc192","study_id":"6197b3f67c2b5cd3b6d9596a","session_id":"619beefc9a3d9c4719aacb9a","condition":"contingent","relevant_dimensions":["pattern","legs"],"bee_group":{"antennae":"X","wings":"X","pattern":"D","legs":"F"},"bonus":1.320000000000001},{"rt":2059.2000000476837,"stimulus":"bees-with-color/bee-A1SF.svg","response":1,"trial_type":"image-button-response","trial_index":143,"time_elapsed":399586,"internal_node_id":"0.0-6.0-0.7","subject_id":"5ef698a927c8ea38d5bcc192","study_id":"6197b3f67c2b5cd3b6d9596a","session_id":"619beefc9a3d9c4719aacb9a","condition":"contingent","relevant_dimensions":["pattern","legs"],"bee_group":{"antennae":"X","wings":"X","pattern":"D","legs":"F"},"bonus":1.320000000000001},{"rt":1166.7000000476837,"stimulus":"bees-with-color/bee-A2SF.svg","response":1,"trial_type":"image-button-response","trial_index":144,"time_elapsed":400757,"internal_node_id":"0.0-6.0-0.8","subject_id":"5ef698a927c8ea38d5bcc192","study_id":"6197b3f67c2b5cd3b6d9596a","session_id":"619beefc9a3d9c4719aacb9a","condition":"contingent","relevant_dimensions":["pattern","legs"],"bee_group":{"antennae":"X","wings":"X","pattern":"D","legs":"F"},"bonus":1.320000000000001},{"rt":1275,"stimulus":"bees-with-color/bee-B2SF.svg","response":1,"trial_type":"image-button-response","trial_index":145,"time_elapsed":402036,"internal_node_id":"0.0-6.0-0.9","subject_id":"5ef698a927c8ea38d5bcc192","study_id":"6197b3f67c2b5cd3b6d9596a","session_id":"619beefc9a3d9c4719aacb9a","condition":"contingent","relevant_dimensions":["pattern","legs"],"bee_group":{"antennae":"X","wings":"X","pattern":"D","legs":"F"},"bonus":1.320000000000001},{"rt":988.3999999761581,"stimulus":"bees-with-color/bee-B1DM.svg","response":0,"trial_type":"image-button-response","trial_index":146,"time_elapsed":403029,"internal_node_id":"0.0-6.0-0.10","subject_id":"5ef698a927c8ea38d5bcc192","study_id":"6197b3f67c2b5cd3b6d9596a","session_id":"619beefc9a3d9c4719aacb9a","condition":"contingent","relevant_dimensions":["pattern","legs"],"bee_group":{"antennae":"X","wings":"X","pattern":"D","legs":"F"},"bonus":1.320000000000001},{"rt":1134.7000000476837,"stimulus":"bees-with-color/bee-B1DF.svg","response":1,"trial_type":"image-button-response","trial_index":147,"time_elapsed":404169,"internal_node_id":"0.0-6.0-0.11","subject_id":"5ef698a927c8ea38d5bcc192","study_id":"6197b3f67c2b5cd3b6d9596a","session_id":"619beefc9a3d9c4719aacb9a","condition":"contingent","relevant_dimensions":["pattern","legs"],"bee_group":{"antennae":"X","wings":"X","pattern":"D","legs":"F"},"bonus":1.320000000000001},{"rt":887.2000000476837,"stimulus":"bees-with-color/bee-B2DF.svg","response":1,"trial_type":"image-button-response","trial_index":148,"time_elapsed":405061,"internal_node_id":"0.0-6.0-0.12","subject_id":"5ef698a927c8ea38d5bcc192","study_id":"6197b3f67c2b5cd3b6d9596a","session_id":"619beefc9a3d9c4719aacb9a","condition":"contingent","relevant_dimensions":["pattern","legs"],"bee_group":{"antennae":"X","wings":"X","pattern":"D","legs":"F"},"bonus":1.320000000000001},{"rt":1126.4000000953674,"stimulus":"bees-with-color/bee-B2SM.svg","response":0,"trial_type":"image-button-response","trial_index":149,"time_elapsed":406192,"internal_node_id":"0.0-6.0-0.13","subject_id":"5ef698a927c8ea38d5bcc192","study_id":"6197b3f67c2b5cd3b6d9596a","session_id":"619beefc9a3d9c4719aacb9a","condition":"contingent","relevant_dimensions":["pattern","legs"],"bee_group":{"antennae":"X","wings":"X","pattern":"D","legs":"F"},"bonus":1.320000000000001},{"rt":2686.2000000476837,"stimulus":"bees-with-color/bee-A1SM.svg","response":0,"trial_type":"image-button-response","trial_index":150,"time_elapsed":408884,"internal_node_id":"0.0-6.0-0.14","subject_id":"5ef698a927c8ea38d5bcc192","study_id":"6197b3f67c2b5cd3b6d9596a","session_id":"619beefc9a3d9c4719aacb9a","condition":"contingent","relevant_dimensions":["pattern","legs"],"bee_group":{"antennae":"X","wings":"X","pattern":"D","legs":"F"},"bonus":1.320000000000001},{"rt":1896,"stimulus":"bees-with-color/bee-B1SM.svg","response":0,"trial_type":"image-button-response","trial_index":151,"time_elapsed":410785,"internal_node_id":"0.0-6.0-0.15","subject_id":"5ef698a927c8ea38d5bcc192","study_id":"6197b3f67c2b5cd3b6d9596a","session_id":"619beefc9a3d9c4719aacb9a","condition":"contingent","relevant_dimensions":["pattern","legs"],"bee_group":{"antennae":"X","wings":"X","pattern":"D","legs":"F"},"bonus":1.320000000000001},{"rt":1198.2000000476837,"stimulus":"bees-with-color/bee-A2SF.svg","response":1,"trial_type":"image-button-response","trial_index":152,"time_elapsed":411987,"internal_node_id":"0.0-6.0-0.16","subject_id":"5ef698a927c8ea38d5bcc192","study_id":"6197b3f67c2b5cd3b6d9596a","session_id":"619beefc9a3d9c4719aacb9a","condition":"contingent","relevant_dimensions":["pattern","legs"],"bee_group":{"antennae":"X","wings":"X","pattern":"D","legs":"F"},"bonus":1.320000000000001},{"rt":957.1000000238419,"stimulus":"bees-with-color/bee-B2SM.svg","response":0,"trial_type":"image-button-response","trial_index":153,"time_elapsed":412948,"internal_node_id":"0.0-6.0-0.17","subject_id":"5ef698a927c8ea38d5bcc192","study_id":"6197b3f67c2b5cd3b6d9596a","session_id":"619beefc9a3d9c4719aacb9a","condition":"contingent","relevant_dimensions":["pattern","legs"],"bee_group":{"antennae":"X","wings":"X","pattern":"D","legs":"F"},"bonus":1.320000000000001},{"rt":2912,"stimulus":"bees-with-color/bee-A2DM.svg","response":0,"trial_type":"image-button-response","trial_index":154,"time_elapsed":415864,"internal_node_id":"0.0-6.0-0.18","subject_id":"5ef698a927c8ea38d5bcc192","study_id":"6197b3f67c2b5cd3b6d9596a","session_id":"619beefc9a3d9c4719aacb9a","condition":"contingent","relevant_dimensions":["pattern","legs"],"bee_group":{"antennae":"X","wings":"X","pattern":"D","legs":"F"},"bonus":1.320000000000001},{"rt":1158.1000000238419,"stimulus":"bees-with-color/bee-B1DF.svg","response":1,"trial_type":"image-button-response","trial_index":155,"time_elapsed":417028,"internal_node_id":"0.0-6.0-0.19","subject_id":"5ef698a927c8ea38d5bcc192","study_id":"6197b3f67c2b5cd3b6d9596a","session_id":"619beefc9a3d9c4719aacb9a","condition":"contingent","relevant_dimensions":["pattern","legs"],"bee_group":{"antennae":"X","wings":"X","pattern":"D","legs":"F"},"bonus":1.320000000000001},{"rt":1190.8999999761581,"stimulus":"bees-with-color/bee-A2DF.svg","response":1,"trial_type":"image-button-response","trial_index":156,"time_elapsed":418222,"internal_node_id":"0.0-6.0-0.20","subject_id":"5ef698a927c8ea38d5bcc192","study_id":"6197b3f67c2b5cd3b6d9596a","session_id":"619beefc9a3d9c4719aacb9a","condition":"contingent","relevant_dimensions":["pattern","legs"],"bee_group":{"antennae":"X","wings":"X","pattern":"D","legs":"F"},"bonus":1.320000000000001},{"rt":888.1000000238419,"stimulus":"bees-with-color/bee-B1DM.svg","response":0,"trial_type":"image-button-response","trial_index":157,"time_elapsed":419114,"internal_node_id":"0.0-6.0-0.21","subject_id":"5ef698a927c8ea38d5bcc192","study_id":"6197b3f67c2b5cd3b6d9596a","session_id":"619beefc9a3d9c4719aacb9a","condition":"contingent","relevant_dimensions":["pattern","legs"],"bee_group":{"antennae":"X","wings":"X","pattern":"D","legs":"F"},"bonus":1.320000000000001},{"rt":966.6999999284744,"stimulus":"bees-with-color/bee-B1SM.svg","response":0,"trial_type":"image-button-response","trial_index":158,"time_elapsed":420085,"internal_node_id":"0.0-6.0-0.22","subject_id":"5ef698a927c8ea38d5bcc192","study_id":"6197b3f67c2b5cd3b6d9596a","session_id":"619beefc9a3d9c4719aacb9a","condition":"contingent","relevant_dimensions":["pattern","legs"],"bee_group":{"antennae":"X","wings":"X","pattern":"D","legs":"F"},"bonus":1.320000000000001},{"rt":964.2999999523163,"stimulus":"bees-with-color/bee-A2SM.svg","response":0,"trial_type":"image-button-response","trial_index":159,"time_elapsed":421053,"internal_node_id":"0.0-6.0-0.23","subject_id":"5ef698a927c8ea38d5bcc192","study_id":"6197b3f67c2b5cd3b6d9596a","session_id":"619beefc9a3d9c4719aacb9a","condition":"contingent","relevant_dimensions":["pattern","legs"],"bee_group":{"antennae":"X","wings":"X","pattern":"D","legs":"F"},"bonus":1.320000000000001},{"rt":1259.8999999761581,"stimulus":"bees-with-color/bee-B2DM.svg","response":0,"trial_type":"image-button-response","trial_index":160,"time_elapsed":422317,"internal_node_id":"0.0-6.0-0.24","subject_id":"5ef698a927c8ea38d5bcc192","study_id":"6197b3f67c2b5cd3b6d9596a","session_id":"619beefc9a3d9c4719aacb9a","condition":"contingent","relevant_dimensions":["pattern","legs"],"bee_group":{"antennae":"X","wings":"X","pattern":"D","legs":"F"},"bonus":1.320000000000001},{"rt":1159.3999999761581,"stimulus":"bees-with-color/bee-A1SF.svg","response":1,"trial_type":"image-button-response","trial_index":161,"time_elapsed":423481,"internal_node_id":"0.0-6.0-0.25","subject_id":"5ef698a927c8ea38d5bcc192","study_id":"6197b3f67c2b5cd3b6d9596a","session_id":"619beefc9a3d9c4719aacb9a","condition":"contingent","relevant_dimensions":["pattern","legs"],"bee_group":{"antennae":"X","wings":"X","pattern":"D","legs":"F"},"bonus":1.320000000000001},{"rt":1716.8999999761581,"stimulus":"bees-with-color/bee-B1SF.svg","response":1,"trial_type":"image-button-response","trial_index":162,"time_elapsed":425201,"internal_node_id":"0.0-6.0-0.26","subject_id":"5ef698a927c8ea38d5bcc192","study_id":"6197b3f67c2b5cd3b6d9596a","session_id":"619beefc9a3d9c4719aacb9a","condition":"contingent","relevant_dimensions":["pattern","legs"],"bee_group":{"antennae":"X","wings":"X","pattern":"D","legs":"F"},"bonus":1.320000000000001},{"rt":895.6000000238419,"stimulus":"bees-with-color/bee-A1SM.svg","response":0,"trial_type":"image-button-response","trial_index":163,"time_elapsed":426101,"internal_node_id":"0.0-6.0-0.27","subject_id":"5ef698a927c8ea38d5bcc192","study_id":"6197b3f67c2b5cd3b6d9596a","session_id":"619beefc9a3d9c4719aacb9a","condition":"contingent","relevant_dimensions":["pattern","legs"],"bee_group":{"antennae":"X","wings":"X","pattern":"D","legs":"F"},"bonus":1.320000000000001},{"rt":981.7999999523163,"stimulus":"bees-with-color/bee-A1DM.svg","response":0,"trial_type":"image-button-response","trial_index":164,"time_elapsed":427086,"internal_node_id":"0.0-6.0-0.28","subject_id":"5ef698a927c8ea38d5bcc192","study_id":"6197b3f67c2b5cd3b6d9596a","session_id":"619beefc9a3d9c4719aacb9a","condition":"contingent","relevant_dimensions":["pattern","legs"],"bee_group