[{"success":true,"trial_type":"fullscreen","trial_index":0,"time_elapsed":22211,"internal_node_id":"0.0-0.0","subject_id":"6167299d96c225c0dad1475c","study_id":"60edd13110225f80f9f3709b","session_id":"6196c4a2df81e93b5fdd6484","condition":"contingent","relevant_dimensions":["antennae","wings"],"bee_group":{"antennae":"A","wings":"1","pattern":"X","legs":"X"},"bonus":1.7600000000000013},{"success":true,"timeout":false,"failed_images":[],"failed_audio":[],"failed_video":[],"trial_type":"preload","trial_index":1,"time_elapsed":24172,"internal_node_id":"0.0-1.0","subject_id":"6167299d96c225c0dad1475c","study_id":"60edd13110225f80f9f3709b","session_id":"6196c4a2df81e93b5fdd6484","condition":"contingent","relevant_dimensions":["antennae","wings"],"bee_group":{"antennae":"A","wings":"1","pattern":"X","legs":"X"},"bonus":1.7600000000000013},{"rt":2849.7000000029802,"stimulus":"Welcome! Press any key to begin.","response":" ","trial_type":"html-keyboard-response","trial_index":2,"time_elapsed":27022,"internal_node_id":"0.0-2.0","subject_id":"6167299d96c225c0dad1475c","study_id":"60edd13110225f80f9f3709b","session_id":"6196c4a2df81e93b5fdd6484","condition":"contingent","relevant_dimensions":["antennae","wings"],"bee_group":{"antennae":"A","wings":"1","pattern":"X","legs":"X"},"bonus":1.7600000000000013},{"view_history":[{"page_index":0,"viewing_time":3021.7000000029802},{"page_index":1,"viewing_time":7953.79999999702},{"page_index":2,"viewing_time":6752.89999999851},{"page_index":3,"viewing_time":8802.90000000596},{"page_index":4,"viewing_time":5673},{"page_index":3,"viewing_time":500},{"page_index":2,"viewing_time":2174.89999999851},{"page_index":3,"viewing_time":741},{"page_index":4,"viewing_time":664.1000000014901},{"page_index":5,"viewing_time":3280.89999999851},{"page_index":6,"viewing_time":4048},{"page_index":7,"viewing_time":3754.89999999851},{"page_index":8,"viewing_time":2491},{"page_index":9,"viewing_time":1622.1000000014901},{"page_index":10,"viewing_time":1303.6000000014901},{"page_index":11,"viewing_time":5590.19999999553},{"page_index":12,"viewing_time":3778.89999999851},{"page_index":13,"viewing_time":957.9000000059605},{"page_index":14,"viewing_time":1615}],"rt":64727,"trial_type":"instructions","trial_index":3,"time_elapsed":91749,"internal_node_id":"0.0-3.0-0.0","subject_id":"6167299d96c225c0dad1475c","study_id":"60edd13110225f80f9f3709b","session_id":"6196c4a2df81e93b5fdd6484","condition":"contingent","relevant_dimensions":["antennae","wings"],"bee_group":{"antennae":"A","wings":"1","pattern":"X","legs":"X"},"bonus":1.7600000000000013},{"rt":10821.89999999851,"response":{"Q0":["Two or six legs","Stripes or spots on body","Single or double wings","Antennae or no antennae"]},"question_order":[0],"trial_type":"survey-multi-select","trial_index":4,"time_elapsed":102574,"internal_node_id":"0.0-3.0-1.0","subject_id":"6167299d96c225c0dad1475c","study_id":"60edd13110225f80f9f3709b","session_id":"6196c4a2df81e93b5fdd6484","condition":"contingent","relevant_dimensions":["antennae","wings"],"bee_group":{"antennae":"A","wings":"1","pattern":"X","legs":"X"},"correct":true,"bonus":1.7600000000000013},{"rt":18817.80000000447,"response":{"Q1":"No.","Q2":"Based on the four features of the bee.","Q3":"You do not learn if it was friendly or dangerous, and do not alter your bonus."},"question_order":[0,1,2],"trial_type":"survey-multi-choice","trial_index":5,"time_elapsed":121394,"internal_node_id":"0.0-3.0-2.0","subject_id":"6167299d96c225c0dad1475c","study_id":"60edd13110225f80f9f3709b","session_id":"6196c4a2df81e93b5fdd6484","condition":"contingent","relevant_dimensions":["antennae","wings"],"bee_group":{"antennae":"A","wings":"1","pattern":"X","legs":"X"},"correct":true,"bonus":1.7600000000000013},{"rt":1867.3999999985099,"stimulus":"<p>Congrats, you got everything right<br>When you're ready, click the button below to continue to the experiment.</p>","response":0,"trial_type":"html-button-response","trial_index":6,"time_elapsed":123264,"internal_node_id":"0.0-3.0-3.0","subject_id":"6167299d96c225c0dad1475c","study_id":"60edd13110225f80f9f3709b","session_id":"6196c4a2df81e93b5fdd6484","condition":"contingent","relevant_dimensions":["antennae","wings"],"bee_group":{"antennae":"A","wings":"1","pattern":"X","legs":"X"},"bonus":1.7600000000000013},{"rt":2041.2999999970198,"stimulus":"bees-with-color/bee-B1DF.svg","response":0,"trial_type":"image-button-response","trial_index":7,"time_elapsed":125307,"internal_node_id":"0.0-4.0-0.0","subject_id":"6167299d96c225c0dad1475c","study_id":"60edd13110225f80f9f3709b","session_id":"6196c4a2df81e93b5fdd6484","condition":"contingent","relevant_dimensions":["antennae","wings"],"bee_group":{"antennae":"A","wings":"1","pattern":"X","legs":"X"},"action":"harvest","summary":"good-harvest","bonus":1.7600000000000013},{"rt":7631.5,"stimulus":"\n                    <p><b>Action: <em>harvest</em></b></p>\n                    <p>This is the bee that you just saw.</p>\n                    <img src=\"bees-with-color/bee-B1DF.svg\" width=\"200\">\n                    <p><span class=\"greenText\"><b>Successful harvest!</b></span><br>Your pay has increased by $0.02. Your bonus pay is now $0.56.</p>\n            ","response":0,"trial_type":"html-button-response","trial_index":8,"time_elapsed":132940,"internal_node_id":"0.0-4.0-1.0","subject_id":"6167299d96c225c0dad1475c","study_id":"60edd13110225f80f9f3709b","session_id":"6196c4a2df81e93b5fdd6484","condition":"contingent","relevant_dimensions":["antennae","wings"],"bee_group":{"antennae":"A","wings":"1","pattern":"X","legs":"X"},"bonus":1.7600000000000013},{"rt":2185.2000000029802,"stimulus":"bees-with-color/bee-A1DF.svg","response":0,"trial_type":"image-button-response","trial_index":9,"time_elapsed":135126,"internal_node_id":"0.0-4.0-0.1","subject_id":"6167299d96c225c0dad1475c","study_id":"60edd13110225f80f9f3709b","session_id":"6196c4a2df81e93b5fdd6484","condition":"contingent","relevant_dimensions":["antennae","wings"],"bee_group":{"antennae":"A","wings":"1","pattern":"X","legs":"X"},"action":"harvest","summary":"bad-harvest","bonus":1.7600000000000013},{"rt":3023.7000000029802,"stimulus":"\n                    <p><b>Action: <em>harvest</em></b></p>\n                    <p>This is the bee that you just saw.</p>\n                    <img src=\"bees-with-color/bee-A1DF.svg\" width=\"200\">\n                    <p><span class=\"redText\">Bad choice, the bee was angry.</span><br><b>You have been stung!</b><br>Your pay has been decreased by $0.10. Your bonus pay is now $0.46.</p>\n            ","response":0,"trial_type":"html-button-response","trial_index":10,"time_elapsed":138151,"internal_node_id":"0.0-4.0-1.1","subject_id":"6167299d96c225c0dad1475c","study_id":"60edd13110225f80f9f3709b","session_id":"6196c4a2df81e93b5fdd6484","condition":"contingent","relevant_dimensions":["antennae","wings"],"bee_group":{"antennae":"A","wings":"1","pattern":"X","legs":"X"},"bonus":1.7600000000000013},{"rt":1633.8000000044703,"stimulus":"bees-with-color/bee-B1SF.svg","response":0,"trial_type":"image-button-response","trial_index":11,"time_elapsed":139785,"internal_node_id":"0.0-4.0-0.2","subject_id":"6167299d96c225c0dad1475c","study_id":"60edd13110225f80f9f3709b","session_id":"6196c4a2df81e93b5fdd6484","condition":"contingent","relevant_dimensions":["antennae","wings"],"bee_group":{"antennae":"A","wings":"1","pattern":"X","legs":"X"},"action":"harvest","summary":"good-harvest","bonus":1.7600000000000013},{"rt":4762.10000000149,"stimulus":"\n                    <p><b>Action: <em>harvest</em></b></p>\n                    <p>This is the bee that you just saw.</p>\n                    <img src=\"bees-with-color/bee-B1SF.svg\" width=\"200\">\n                    <p><span class=\"greenText\"><b>Successful harvest!</b></span><br>Your pay has increased by $0.02. Your bonus pay is now $0.48.</p>\n            ","response":0,"trial_type":"html-button-response","trial_index":12,"time_elapsed":144548,"internal_node_id":"0.0-4.0-1.2","subject_id":"6167299d96c225c0dad1475c","study_id":"60edd13110225f80f9f3709b","session_id":"6196c4a2df81e93b5fdd6484","condition":"contingent","relevant_dimensions":["antennae","wings"],"bee_group":{"antennae":"A","wings":"1","pattern":"X","legs":"X"},"bonus":1.7600000000000013},{"rt":1862.3999999985099,"stimulus":"bees-with-color/bee-B2DF.svg","response":0,"trial_type":"image-button-response","trial_index":13,"time_elapsed":146412,"internal_node_id":"0.0-4.0-0.3","subject_id":"6167299d96c225c0dad1475c","study_id":"60edd13110225f80f9f3709b","session_id":"6196c4a2df81e93b5fdd6484","condition":"contingent","relevant_dimensions":["antennae","wings"],"bee_group":{"antennae":"A","wings":"1","pattern":"X","legs":"X"},"action":"harvest","summary":"good-harvest","bonus":1.7600000000000013},{"rt":1355.7999999970198,"stimulus":"\n                    <p><b>Action: <em>harvest</em></b></p>\n                    <p>This is the bee that you just saw.</p>\n                    <img src=\"bees-with-color/bee-B2DF.svg\" width=\"200\">\n                    <p><span class=\"greenText\"><b>Successful harvest!</b></span><br>Your pay has increased by $0.02. Your bonus pay is now $0.50.</p>\n            ","response":0,"trial_type":"html-button-response","trial_index":14,"time_elapsed":147768,"internal_node_id":"0.0-4.0-1.3","subject_id":"6167299d96c225c0dad1475c","study_id":"60edd13110225f80f9f3709b","session_id":"6196c4a2df81e93b5fdd6484","condition":"contingent","relevant_dimensions":["antennae","wings"],"bee_group":{"antennae":"A","wings":"1","pattern":"X","legs":"X"},"bonus":1.7600000000000013},{"rt":3098.10000000149,"stimulus":"bees-with-color/bee-A1SF.svg","response":1,"trial_type":"image-button-response","trial_index":15,"time_elapsed":150867,"internal_node_id":"0.0-4.0-0.4","subject_id":"6167299d96c225c0dad1475c","study_id":"60edd13110225f80f9f3709b","session_id":"6196c4a2df81e93b5fdd6484","condition":"contingent","relevant_dimensions":["antennae","wings"],"bee_group":{"antennae":"A","wings":"1","pattern":"X","legs":"X"},"action":"avoid","summary":"good-avoid","bonus":1.7600000000000013},{"rt":4329.10000000149,"stimulus":"\n                    <p><b>Action: <em>avoid</em></b></p>\n                    <p>This is the bee that you just saw.</p>\n                    <img src=\"bees-with-color/bee-A1SF.svg\" width=\"200\">\n                    <p><br>Your bonus pay is unchanged, and remains at $0.50.</p>\n            ","response":0,"trial_type":"html-button-response","trial_index":16,"time_elapsed":155198,"internal_node_id":"0.0-4.0-1.4","subject_id":"6167299d96c225c0dad1475c","study_id":"60edd13110225f80f9f3709b","session_id":"6196c4a2df81e93b5fdd6484","condition":"contingent","relevant_dimensions":["antennae","wings"],"bee_group":{"antennae":"A","wings":"1","pattern":"X","legs":"X"},"bonus":1.7600000000000013},{"rt":3607.5,"stimulus":"bees-with-color/bee-A2SM.svg","response":0,"trial_type":"image-button-response","trial_index":17,"time_elapsed":158806,"internal_node_id":"0.0-4.0-0.5","subject_id":"6167299d96c225c0dad1475c","study_id":"60edd13110225f80f9f3709b","session_id":"6196c4a2df81e93b5fdd6484","condition":"contingent","relevant_dimensions":["antennae","wings"],"bee_group":{"antennae":"A","wings":"1","pattern":"X","legs":"X"},"action":"harvest","summary":"good-harvest","bonus":1.7600000000000013},{"rt":3328.10000000149,"stimulus":"\n                    <p><b>Action: <em>harvest</em></b></p>\n                    <p>This is the bee that you just saw.</p>\n                    <img src=\"bees-with-color/bee-A2SM.svg\" width=\"200\">\n                    <p><span class=\"greenText\"><b>Successful harvest!</b></span><br>Your pay has increased by $0.02. Your bonus pay is now $0.52.</p>\n            ","response":0,"trial_type":"html-button-response","trial_index":18,"time_elapsed":162135,"internal_node_id":"0.0-4.0-1.5","subject_id":"6167299d96c225c0dad1475c","study_id":"60edd13110225f80f9f3709b","session_id":"6196c4a2df81e93b5fdd6484","condition":"contingent","relevant_dimensions":["antennae","wings"],"bee_group":{"antennae":"A","wings":"1","pattern":"X","legs":"X"},"bonus":1.7600000000000013},{"rt":1525.6999999955297,"stimulus":"bees-with-color/bee-B2SF.svg","response":0,"trial_type":"image-button-response","trial_index":19,"time_elapsed":163662,"internal_node_id":"0.0-4.0-0.6","subject_id":"6167299d96c225c0dad1475c","study_id":"60edd13110225f80f9f3709b","session_id":"6196c4a2df81e93b5fdd6484","condition":"contingent","relevant_dimensions":["antennae","wings"],"bee_group":{"antennae":"A","wings":"1","pattern":"X","legs":"X"},"action":"harvest","summary":"good-harvest","bonus":1.7600000000000013},{"rt":949.1999999955297,"stimulus":"\n                    <p><b>Action: <em>harvest</em></b></p>\n                    <p>This is the bee that you just saw.</p>\n                    <img src=\"bees-with-color/bee-B2SF.svg\" width=\"200\">\n                    <p><span class=\"greenText\"><b>Successful harvest!</b></span><br>Your pay has increased by $0.02. Your bonus pay is now $0.54.</p>\n            ","response":0,"trial_type":"html-button-response","trial_index":20,"time_elapsed":164612,"internal_node_id":"0.0-4.0-1.6","subject_id":"6167299d96c225c0dad1475c","study_id":"60edd13110225f80f9f3709b","session_id":"6196c4a2df81e93b5fdd6484","condition":"contingent","relevant_dimensions":["antennae","wings"],"bee_group":{"antennae":"A","wings":"1","pattern":"X","legs":"X"},"bonus":1.7600000000000013},{"rt":1213.1999999955297,"stimulus":"bees-with-color/bee-B1SM.svg","response":0,"trial_type":"image-button-response","trial_index":21,"time_elapsed":165826,"internal_node_id":"0.0-4.0-0.7","subject_id":"6167299d96c225c0dad1475c","study_id":"60edd13110225f80f9f3709b","session_id":"6196c4a2df81e93b5fdd6484","condition":"contingent","relevant_dimensions":["antennae","wings"],"bee_group":{"antennae":"A","wings":"1","pattern":"X","legs":"X"},"action":"harvest","summary":"good-harvest","bonus":1.7600000000000013},{"rt":791.1999999955297,"stimulus":"\n                    <p><b>Action: <em>harvest</em></b></p>\n                    <p>This is the bee that you just saw.</p>\n                    <img src=\"bees-with-color/bee-B1SM.svg\" width=\"200\">\n                    <p><span class=\"greenText\"><b>Successful harvest!</b></span><br>Your pay has increased by $0.02. Your bonus pay is now $0.56.</p>\n            ","response":0,"trial_type":"html-button-response","trial_index":22,"time_elapsed":166618,"internal_node_id":"0.0-4.0-1.7","subject_id":"6167299d96c225c0dad1475c","study_id":"60edd13110225f80f9f3709b","session_id":"6196c4a2df81e93b5fdd6484","condition":"contingent","relevant_dimensions":["antennae","wings"],"bee_group":{"antennae":"A","wings":"1","pattern":"X","legs":"X"},"bonus":1.7600000000000013},{"rt":1308.1000000014901,"stimulus":"bees-with-color/bee-A1SM.svg","response":0,"trial_type":"image-button-response","trial_index":23,"time_elapsed":167927,"internal_node_id":"0.0-4.0-0.8","subject_id":"6167299d96c225c0dad1475c","study_id":"60edd13110225f80f9f3709b","session_id":"6196c4a2df81e93b5fdd6484","condition":"contingent","relevant_dimensions":["antennae","wings"],"bee_group":{"antennae":"A","wings":"1","pattern":"X","legs":"X"},"action":"harvest","summary":"bad-harvest","bonus":1.7600000000000013},{"rt":1630.2999999970198,"stimulus":"\n                    <p><b>Action: <em>harvest</em></b></p>\n                    <p>This is the bee that you just saw.</p>\n                    <img src=\"bees-with-color/bee-A1SM.svg\" width=\"200\">\n                    <p><span class=\"redText\">Bad choice, the bee was angry.</span><br><b>You have been stung!</b><br>Your pay has been decreased by $0.10. Your bonus pay is now $0.46.</p>\n            ","response":0,"trial_type":"html-button-response","trial_index":24,"time_elapsed":169558,"internal_node_id":"0.0-4.0-1.8","subject_id":"6167299d96c225c0dad1475c","study_id":"60edd13110225f80f9f3709b","session_id":"6196c4a2df81e93b5fdd6484","condition":"contingent","relevant_dimensions":["antennae","wings"],"bee_group":{"antennae":"A","wings":"1","pattern":"X","legs":"X"},"bonus":1.7600000000000013},{"rt":2809,"stimulus":"bees-with-color/bee-A1DM.svg","response":1,"trial_type":"image-button-response","trial_index":25,"time_elapsed":172368,"internal_node_id":"0.0-4.0-0.9","subject_id":"6167299d96c225c0dad1475c","study_id":"60edd13110225f80f9f3709b","session_id":"6196c4a2df81e93b5fdd6484","condition":"contingent","relevant_dimensions":["antennae","wings"],"bee_group":{"antennae":"A","wings":"1","pattern":"X","legs":"X"},"action":"avoid","summary":"good-avoid","bonus":1.7600000000000013},{"rt":930.1999999955297,"stimulus":"\n                    <p><b>Action: <em>avoid</em></b></p>\n                    <p>This is the bee that you just saw.</p>\n                    <img src=\"bees-with-color/bee-A1DM.svg\" width=\"200\">\n                    <p><br>Your bonus pay is unchanged, and remains at $0.46.</p>\n            ","response":0,"trial_type":"html-button-response","trial_index":26,"time_elapsed":173299,"internal_node_id":"0.0-4.0-1.9","subject_id":"6167299d96c225c0dad1475c","study_id":"60edd13110225f80f9f3709b","session_id":"6196c4a2df81e93b5fdd6484","condition":"contingent","relevant_dimensions":["antennae","wings"],"bee_group":{"antennae":"A","wings":"1","pattern":"X","legs":"X"},"bonus":1.7600000000000013},{"rt":2902,"stimulus":"bees-with-color/bee-A2SF.svg","response":1,"trial_type":"image-button-response","trial_index":27,"time_elapsed":176202,"internal_node_id":"0.0-4.0-0.10","subject_id":"6167299d96c225c0dad1475c","study_id":"60edd13110225f80f9f3709b","session_id":"6196c4a2df81e93b5fdd6484","condition":"contingent","relevant_dimensions":["antennae","wings"],"bee_group":{"antennae":"A","wings":"1","pattern":"X","legs":"X"},"action":"avoid","summary":"bad-avoid","bonus":1.7600000000000013},{"rt":1206.1000000014901,"stimulus":"\n                    <p><b>Action: <em>avoid</em></b></p>\n                    <p>This is the bee that you just saw.</p>\n                    <img src=\"bees-with-color/bee-A2SF.svg\" width=\"200\">\n                    <p><br>Your bonus pay is unchanged, and remains at $0.46.</p>\n            ","response":0,"trial_type":"html-button-response","trial_index":28,"time_elapsed":177409,"internal_node_id":"0.0-4.0-1.10","subject_id":"6167299d96c225c0dad1475c","study_id":"60edd13110225f80f9f3709b","session_id":"6196c4a2df81e93b5fdd6484","condition":"contingent","relevant_dimensions":["antennae","wings"],"bee_group":{"antennae":"A","wings":"1","pattern":"X","legs":"X"},"bonus":1.7600000000000013},{"rt":1044.1999999955297,"stimulus":"bees-with-color/bee-B1DM.svg","response":0,"trial_type":"image-button-response","trial_index":29,"time_elapsed":178454,"internal_node_id":"0.0-4.0-0.11","subject_id":"6167299d96c225c0dad1475c","study_id":"60edd13110225f80f9f3709b","session_id":"6196c4a2df81e93b5fdd6484","condition":"contingent","relevant_dimensions":["antennae","wings"],"bee_group":{"antennae":"A","wings":"1","pattern":"X","legs":"X"},"action":"harvest","summary":"good-harvest","bonus":1.7600000000000013},{"rt":618.8999999985099,"stimulus":"\n                    <p><b>Action: <em>harvest</em></b></p>\n                    <p>This is the bee that you just saw.</p>\n                    <img src=\"bees-with-color/bee-B1DM.svg\" width=\"200\">\n                    <p><span class=\"greenText\"><b>Successful harvest!</b></span><br>Your pay has increased by $0.02. Your bonus pay is now $0.48.</p>\n            ","response":0,"trial_type":"html-button-response","trial_index":30,"time_elapsed":179074,"internal_node_id":"0.0-4.0-1.11","subject_id":"6167299d96c225c0dad1475c","study_id":"60edd13110225f80f9f3709b","session_id":"6196c4a2df81e93b5fdd6484","condition":"contingent","relevant_dimensions":["antennae","wings"],"bee_group":{"antennae":"A","wings":"1","pattern":"X","legs":"X"},"bonus":1.7600000000000013},{"rt":3243.2000000029802,"stimulus":"bees-with-color/bee-A2DM.svg","response":0,"trial_type":"image-button-response","trial_index":31,"time_elapsed":182318,"internal_node_id":"0.0-4.0-0.12","subject_id":"6167299d96c225c0dad1475c","study_id":"60edd13110225f80f9f3709b","session_id":"6196c4a2df81e93b5fdd6484","condition":"contingent","relevant_dimensions":["antennae","wings"],"bee_group":{"antennae":"A","wings":"1","pattern":"X","legs":"X"},"action":"harvest","summary":"good-harvest","bonus":1.7600000000000013},{"rt":2556.2000000029802,"stimulus":"\n                    <p><b>Action: <em>harvest</em></b></p>\n                    <p>This is the bee that you just saw.</p>\n                    <img src=\"bees-with-color/bee-A2DM.svg\" width=\"200\">\n                    <p><span class=\"greenText\"><b>Successful harvest!</b></span><br>Your pay has increased by $0.02. Your bonus pay is now $0.50.</p>\n            ","response":0,"trial_type":"html-button-response","trial_index":32,"time_elapsed":184875,"internal_node_id":"0.0-4.0-1.12","subject_id":"6167299d96c225c0dad1475c","study_id":"60edd13110225f80f9f3709b","session_id":"6196c4a2df81e93b5fdd6484","condition":"contingent","relevant_dimensions":["antennae","wings"],"bee_group":{"antennae":"A","wings":"1","pattern":"X","legs":"X"},"bonus":1.7600000000000013},{"rt":1480.1000000014901,"stimulus":"bees-with-color/bee-B2SM.svg","response":0,"trial_type":"image-button-response","trial_index":33,"time_elapsed":186356,"internal_node_id":"0.0-4.0-0.13","subject_id":"6167299d96c225c0dad1475c","study_id":"60edd13110225f80f9f3709b","session_id":"6196c4a2df81e93b5fdd6484","condition":"contingent","relevant_dimensions":["antennae","wings"],"bee_group":{"antennae":"A","wings":"1","pattern":"X","legs":"X"},"action":"harvest","summary":"good-harvest","bonus":1.7600000000000013},{"rt":877.1000000014901,"stimulus":"\n                    <p><b>Action: <em>harvest</em></b></p>\n                    <p>This is the bee that you just saw.</p>\n                    <img src=\"bees-with-color/bee-B2SM.svg\" width=\"200\">\n                    <p><span class=\"greenText\"><b>Successful harvest!</b></span><br>Your pay has increased by $0.02. Your bonus pay is now $0.52.</p>\n            ","response":0,"trial_type":"html-button-response","trial_index":34,"time_elapsed":187234,"internal_node_id":"0.0-4.0-1.13","subject_id":"6167299d96c225c0dad1475c","study_id":"60edd13110225f80f9f3709b","session_id":"6196c4a2df81e93b5fdd6484","condition":"contingent","relevant_dimensions":["antennae","wings"],"bee_group":{"antennae":"A","wings":"1","pattern":"X","legs":"X"},"bonus":1.7600000000000013},{"rt":1133.5,"stimulus":"bees-with-color/bee-A2DF.svg","response":0,"trial_type":"image-button-response","trial_index":35,"time_elapsed":188368,"internal_node_id":"0.0-4.0-0.14","subject_id":"6167299d96c225c0dad1475c","study_id":"60edd13110225f80f9f3709b","session_id":"6196c4a2df81e93b5fdd6484","condition":"contingent","relevant_dimensions":["antennae","wings"],"bee_group":{"antennae":"A","wings":"1","pattern":"X","legs":"X"},"action":"harvest","summary":"good-harvest","bonus":1.7600000000000013},{"rt":1236,"stimulus":"\n                    <p><b>Action: <em>harvest</em></b></p>\n                    <p>This is the bee that you just saw.</p>\n                    <img src=\"bees-with-color/bee-A2DF.svg\" width=\"200\">\n                    <p><span class=\"greenText\"><b>Successful harvest!</b></span><br>Your pay has increased by $0.02. Your bonus pay is now $0.54.</p>\n            ","response":0,"trial_type":"html-button-response","trial_index":36,"time_elapsed":189605,"internal_node_id":"0.0-4.0-1.14","subject_id":"6167299d96c225c0dad1475c","study_id":"60edd13110225f80f9f3709b","session_id":"6196c4a2df81e93b5fdd6484","condition":"contingent","relevant_dimensions":["antennae","wings"],"bee_group":{"antennae":"A","wings":"1","pattern":"X","legs":"X"},"bonus":1.7600000000000013},{"rt":1075.1000000014901,"stimulus":"bees-with-color/bee-B2DM.svg","response":0,"trial_type":"image-button-response","trial_index":37,"time_elapsed":190681,"internal_node_id":"0.0-4.0-0.15","subject_id":"6167299d96c225c0dad1475c","study_id":"60edd13110225f80f9f3709b","session_id":"6196c4a2df81e93b5fdd6484","condition":"contingent","relevant_dimensions":["antennae","wings"],"bee_group":{"antennae":"A","wings":"1","pattern":"X","legs":"X"},"action":"harvest","summary":"good-harvest","bonus":1.7600000000000013},{"rt":648.3000000044703,"stimulus":"\n                    <p><b>Action: <em>harvest</em></b></p>\n                    <p>This is the bee that you just saw.</p>\n                    <img src=\"bees-with-color/bee-B2DM.svg\" width=\"200\">\n                    <p><span class=\"greenText\"><b>Successful harvest!</b></span><br>Your pay has increased by $0.02. Your bonus pay is now $0.56.</p>\n            ","response":0,"trial_type":"html-button-response","trial_index":38,"time_elapsed":191330,"internal_node_id":"0.0-4.0-1.15","subject_id":"6167299d96c225c0dad1475c","study_id":"60edd13110225f80f9f3709b","session_id":"6196c4a2df81e93b5fdd6484","condition":"contingent","relevant_dimensions":["antennae","wings"],"bee_group":{"antennae":"A","wings":"1","pattern":"X","legs":"X"},"bonus":1.7600000000000013},{"rt":1243.2999999970198,"stimulus":"bees-with-color/bee-B1DF.svg","response":0,"trial_type":"image-button-response","trial_index":39,"time_elapsed":192574,"internal_node_id":"0.0-4.0-0.16","subject_id":"6167299d96c225c0dad1475c","study_id":"60edd13110225f80f9f3709b","session_id":"6196c4a2df81e93b5fdd6484","condition":"contingent","relevant_dimensions":["antennae","wings"],"bee_group":{"antennae":"A","wings":"1","pattern":"X","legs":"X"},"action":"harvest","summary":"good-harvest","bonus":1.7600000000000013},{"rt":556.2000000029802,"stimulus":"\n                    <p><b>Action: <em>harvest</em></b></p>\n                    <p>This is the bee that you just saw.</p>\n                    <img src=\"bees-with-color/bee-B1DF.svg\" width=\"200\">\n                    <p><span class=\"greenText\"><b>Successful harvest!</b></span><br>Your pay has increased by $0.02. Your bonus pay is now $0.58.</p>\n            ","response":0,"trial_type":"html-button-response","trial_index":40,"time_elapsed":193131,"internal_node_id":"0.0-4.0-1.16","subject_id":"6167299d96c225c0dad1475c","study_id":"60edd13110225f80f9f3709b","session_id":"6196c4a2df81e93b5fdd6484","condition":"contingent","relevant_dimensions":["antennae","wings"],"bee_group":{"antennae":"A","wings":"1","pattern":"X","legs":"X"},"bonus":1.7600000000000013},{"rt":685.2000000029802,"stimulus":"bees-with-color/bee-B2SF.svg","response":0,"trial_type":"image-button-response","trial_index":41,"time_elapsed":193817,"internal_node_id":"0.0-4.0-0.17","subject_id":"6167299d96c225c0dad1475c","study_id":"60edd13110225f80f9f3709b","session_id":"6196c4a2df81e93b5fdd6484","condition":"contingent","relevant_dimensions":["antennae","wings"],"bee_group":{"antennae":"A","wings":"1","pattern":"X","legs":"X"},"action":"harvest","summary":"good-harvest","bonus":1.7600000000000013},{"rt":824.1999999955297,"stimulus":"\n                    <p><b>Action: <em>harvest</em></b></p>\n                    <p>This is the bee that you just saw.</p>\n                    <img src=\"bees-with-color/bee-B2SF.svg\" width=\"200\">\n                    <p><span class=\"greenText\"><b>Successful harvest!</b></span><br>Your pay has increased by $0.02. Your bonus pay is now $0.60.</p>\n            ","response":0,"trial_type":"html-button-response","trial_index":42,"time_elapsed":194642,"internal_node_id":"0.0-4.0-1.17","subject_id":"6167299d96c225c0dad1475c","study_id":"60edd13110225f80f9f3709b","session_id":"6196c4a2df81e93b5fdd6484","condition":"contingent","relevant_dimensions":["antennae","wings"],"bee_group":{"antennae":"A","wings":"1","pattern":"X","legs":"X"},"bonus":1.7600000000000013},{"rt":1572.3999999985099,"stimulus":"bees-with-color/bee-B2DF.svg","response":0,"trial_type":"image-button-response","trial_index":43,"time_elapsed":196215,"internal_node_id":"0.0-4.0-0.18","subject_id":"6167299d96c225c0dad1475c","study_id":"60edd13110225f80f9f3709b","session_id":"6196c4a2df81e93b5fdd6484","condition":"contingent","relevant_dimensions":["antennae","wings"],"bee_group":{"antennae":"A","wings":"1","pattern":"X","legs":"X"},"action":"harvest","summary":"good-harvest","bonus":1.7600000000000013},{"rt":533.1000000014901,"stimulus":"\n                    <p><b>Action: <em>harvest</em></b></p>\n                    <p>This is the bee that you just saw.</p>\n                    <img src=\"bees-with-color/bee-B2DF.svg\" width=\"200\">\n                    <p><span class=\"greenText\"><b>Successful harvest!</b></span><br>Your pay has increased by $0.02. Your bonus pay is now $0.62.</p>\n            ","response":0,"trial_type":"html-button-response","trial_index":44,"time_elapsed":196749,"internal_node_id":"0.0-4.0-1.18","subject_id":"6167299d96c225c0dad1475c","study_id":"60edd13110225f80f9f3709b","session_id":"6196c4a2df81e93b5fdd6484","condition":"contingent","relevant_dimensions":["antennae","wings"],"bee_group":{"antennae":"A","wings":"1","pattern":"X","legs":"X"},"bonus":1.7600000000000013},{"rt":757.2000000029802,"stimulus":"bees-with-color/bee-B1SM.svg","response":0,"trial_type":"image-button-response","trial_index":45,"time_elapsed":197507,"internal_node_id":"0.0-4.0-0.19","subject_id":"6167299d96c225c0dad1475c","study_id":"60edd13110225f80f9f3709b","session_id":"6196c4a2df81e93b5fdd6484","condition":"contingent","relevant_dimensions":["antennae","wings"],"bee_group":{"antennae":"A","wings":"1","pattern":"X","legs":"X"},"action":"harvest","summary":"good-harvest","bonus":1.7600000000000013},{"rt":554.2000000029802,"stimulus":"\n                    <p><b>Action: <em>harvest</em></b></p>\n                    <p>This is the bee that you just saw.</p>\n                    <img src=\"bees-with-color/bee-B1SM.svg\" width=\"200\">\n                    <p><span class=\"greenText\"><b>Successful harvest!</b></span><br>Your pay has increased by $0.02. Your bonus pay is now $0.64.</p>\n            ","response":0,"trial_type":"html-button-response","trial_index":46,"time_elapsed":198062,"internal_node_id":"0.0-4.0-1.19","subject_id":"6167299d96c225c0dad1475c","study_id":"60edd13110225f80f9f3709b","session_id":"6196c4a2df81e93b5fdd6484","condition":"contingent","relevant_dimensions":["antennae","wings"],"bee_group":{"antennae":"A","wings":"1","pattern":"X","legs":"X"},"bonus":1.7600000000000013},{"rt":1554.2000000029802,"stimulus":"bees-with-color/bee-A1DF.svg","response":1,"trial_type":"image-button-response","trial_index":47,"time_elapsed":199617,"internal_node_id":"0.0-4.0-0.20","subject_id":"6167299d96c225c0dad1475c","study_id":"60edd13110225f80f9f3709b","session_id":"6196c4a2df81e93b5fdd6484","condition":"contingent","relevant_dimensions":["antennae","wings"],"bee_group":{"antennae":"A","wings":"1","pattern":"X","legs":"X"},"action":"avoid","summary":"good-avoid","bonus":1.7600000000000013},{"rt":653.1000000014901,"stimulus":"\n                    <p><b>Action: <em>avoid</em></b></p>\n                    <p>This is the bee that you just saw.</p>\n                    <img src=\"bees-with-color/bee-A1DF.svg\" width=\"200\">\n                    <p><br>Your bonus pay is unchanged, and remains at $0.64.</p>\n            ","response":0,"trial_type":"html-button-response","trial_index":48,"time_elapsed":200271,"internal_node_id":"0.0-4.0-1.20","subject_id":"6167299d96c225c0dad1475c","study_id":"60edd13110225f80f9f3709b","session_id":"6196c4a2df81e93b5fdd6484","condition":"contingent","relevant_dimensions":["antennae","wings"],"bee_group":{"antennae":"A","wings":"1","pattern":"X","legs":"X"},"bonus":1.7600000000000013},{"rt":1502.2999999970198,"stimulus":"bees-with-color/bee-A2SF.svg","response":0,"trial_type":"image-button-response","trial_index":49,"time_elapsed":201774,"internal_node_id":"0.0-4.0-0.21","subject_id":"6167299d96c225c0dad1475c","study_id":"60edd13110225f80f9f3709b","session_id":"6196c4a2df81e93b5fdd6484","condition":"contingent","relevant_dimensions":["antennae","wings"],"bee_group":{"antennae":"A","wings":"1","pattern":"X","legs":"X"},"action":"harvest","summary":"good-harvest","bonus":1.7600000000000013},{"rt":609.1999999955297,"stimulus":"\n                    <p><b>Action: <em>harvest</em></b></p>\n                    <p>This is the bee that you just saw.</p>\n                    <img src=\"bees-with-color/bee-A2SF.svg\" width=\"200\">\n                    <p><span class=\"greenText\"><b>Successful harvest!</b></span><br>Your pay has increased by $0.02. Your bonus pay is now $0.66.</p>\n            ","response":0,"trial_type":"html-button-response","trial_index":50,"time_elapsed":202383,"internal_node_id":"0.0-4.0-1.21","subject_id":"6167299d96c225c0dad1475c","study_id":"60edd13110225f80f9f3709b","session_id":"6196c4a2df81e93b5fdd6484","condition":"contingent","relevant_dimensions":["antennae","wings"],"bee_group":{"antennae":"A","wings":"1","pattern":"X","legs":"X"},"bonus":1.7600000000000013},{"rt":1632.3999999985099,"stimulus":"bees-with-color/bee-A1SF.svg","response":1,"trial_type":"image-button-response","trial_index":51,"time_elapsed":204016,"internal_node_id":"0.0-4.0-0.22","subject_id":"6167299d96c225c0dad1475c","study_id":"60edd13110225f80f9f3709b","session_id":"6196c4a2df81e93b5fdd6484","condition":"contingent","relevant_dimensions":["antennae","wings"],"bee_group":{"antennae":"A","wings":"1","pattern":"X","legs":"X"},"action":"avoid","summary":"good-avoid","bonus":1.7600000000000013},{"rt":581,"stimulus":"\n                    <p><b>Action: <em>avoid</em></b></p>\n                    <p>This is the bee that you just saw.</p>\n                    <img src=\"bees-with-color/bee-A1SF.svg\" width=\"200\">\n                    <p><br>Your bonus pay is unchanged, and remains at $0.66.</p>\n            ","response":0,"trial_type":"html-button-response","trial_index":52,"time_elapsed":204598,"internal_node_id":"0.0-4.0-1.22","subject_id":"6167299d96c225c0dad1475c","study_id":"60edd13110225f80f9f3709b","session_id":"6196c4a2df81e93b5fdd6484","condition":"contingent","relevant_dimensions":["antennae","wings"],"bee_group":{"antennae":"A","wings":"1","pattern":"X","legs":"X"},"bonus":1.7600000000000013},{"rt":1286.7999999970198,"stimulus":"bees-with-color/bee-A2DM.svg","response":0,"trial_type":"image-button-response","trial_index":53,"time_elapsed":205885,"internal_node_id":"0.0-4.0-0.23","subject_id":"6167299d96c225c0dad1475c","study_id":"60edd13110225f80f9f3709b","session_id":"6196c4a2df81e93b5fdd6484","condition":"contingent","relevant_dimensions":["antennae","wings"],"bee_group":{"antennae":"A","wings":"1","pattern":"X","legs":"X"},"action":"harvest","summary":"good-harvest","bonus":1.7600000000000013},{"rt":543.1999999955297,"stimulus":"\n                    <p><b>Action: <em>harvest</em></b></p>\n                    <p>This is the bee that you just saw.</p>\n                    <img src=\"bees-with-color/bee-A2DM.svg\" width=\"200\">\n                    <p><span class=\"greenText\"><b>Successful harvest!</b></span><br>Your pay has increased by $0.02. Your bonus pay is now $0.68.</p>\n            ","response":0,"trial_type":"html-button-response","trial_index":54,"time_elapsed":206429,"internal_node_id":"0.0-4.0-1.23","subject_id":"6167299d96c225c0dad1475c","study_id":"60edd13110225f80f9f3709b","session_id":"6196c4a2df81e93b5fdd6484","condition":"contingent","relevant_dimensions":["antennae","wings"],"bee_group":{"antennae":"A","wings":"1","pattern":"X","legs":"X"},"bonus":1.7600000000000013},{"rt":800.3999999985099,"stimulus":"bees-with-color/bee-B2DM.svg","response":0,"trial_type":"image-button-response","trial_index":55,"time_elapsed":207231,"internal_node_id":"0.0-4.0-0.24","subject_id":"6167299d96c225c0dad1475c","study_id":"60edd13110225f80f9f3709b","session_id":"6196c4a2df81e93b5fdd6484","condition":"contingent","relevant_dimensions":["antennae","wings"],"bee_group":{"antennae":"A","wings":"1","pattern":"X","legs":"X"},"action":"harvest","summary":"good-harvest","bonus":1.7600000000000013},{"rt":471.8999999985099,"stimulus":"\n                    <p><b>Action: <em>harvest</em></b></p>\n                    <p>This is the bee that you just saw.</p>\n                    <img src=\"bees-with-color/bee-B2DM.svg\" width=\"200\">\n                    <p><span class=\"greenText\"><b>Successful harvest!</b></span><br>Your pay has increased by $0.02. Your bonus pay is now $0.70.</p>\n            ","response":0,"trial_type":"html-button-response","trial_index":56,"time_elapsed":207703,"internal_node_id":"0.0-4.0-1.24","subject_id":"6167299d96c225c0dad1475c","study_id":"60edd13110225f80f9f3709b","session_id":"6196c4a2df81e93b5fdd6484","condition":"contingent","relevant_dimensions":["antennae","wings"],"bee_group":{"antennae":"A","wings":"1","pattern":"X","legs":"X"},"bonus":1.7600000000000013},{"rt":1059.5999999940395,"stimulus":"bees-with-color/bee-B1SF.svg","response":0,"trial_type":"image-button-response","trial_index":57,"time_elapsed":208763,"internal_node_id":"0.0-4.0-0.25","subject_id":"6167299d96c225c0dad1475c","study_id":"60edd13110225f80f9f3709b","session_id":"6196c4a2df81e93b5fdd6484","condition":"contingent","relevant_dimensions":["antennae","wings"],"bee_group":{"antennae":"A","wings":"1","pattern":"X","legs":"X"},"action":"harvest","summary":"good-harvest","bonus":1.7600000000000013},{"rt":454.19999999552965,"stimulus":"\n                    <p><b>Action: <em>harvest</em></b></p>\n                    <p>This is the bee that you just saw.</p>\n                    <img src=\"bees-with-color/bee-B1SF.svg\" width=\"200\">\n                    <p><span class=\"greenText\"><b>Successful harvest!</b></span><br>Your pay has increased by $0.02. Your bonus pay is now $0.72.</p>\n            ","response":0,"trial_type":"html-button-response","trial_index":58,"time_elapsed":209218,"internal_node_id":"0.0-4.0-1.25","subject_id":"6167299d96c225c0dad1475c","study_id":"60edd13110225f80f9f3709b","session_id":"6196c4a2df81e93b5fdd6484","condition":"contingent","relevant_dimensions":["antennae","wings"],"bee_group":{"antennae":"A","wings":"1","pattern":"X","legs":"X"},"bonus":1.7600000000000013},{"rt":719.2000000029802,"stimulus":"bees-with-color/bee-B2SM.svg","response":0,"trial_type":"image-button-response","trial_index":59,"time_elapsed":209938,"internal_node_id":"0.0-4.0-0.26","subject_id":"6167299d96c225c0dad1475c","study_id":"60edd13110225f80f9f3709b","session_id":"6196c4a2df81e93b5fdd6484","condition":"contingent","relevant_dimensions":["antennae","wings"],"bee_group":{"antennae":"A","wings":"1","pattern":"X","legs":"X"},"action":"harvest","summary":"good-harvest","bonus":1.7600000000000013},{"rt":869.2999999970198,"stimulus":"\n                    <p><b>Action: <em>harvest</em></b></p>\n                    <p>This is the bee that you just saw.</p>\n                    <img src=\"bees-with-color/bee-B2SM.svg\" width=\"200\">\n                    <p><span class=\"greenText\"><b>Successful harvest!</b></span><br>Your pay has increased by $0.02. Your bonus pay is now $0.74.</p>\n            ","response":0,"trial_type":"html-button-response","trial_index":60,"time_elapsed":210808,"internal_node_id":"0.0-4.0-1.26","subject_id":"6167299d96c225c0dad1475c","study_id":"60edd13110225f80f9f3709b","session_id":"6196c4a2df81e93b5fdd6484","condition":"contingent","relevant_dimensions":["antennae","wings"],"bee_group":{"antennae":"A","wings":"1","pattern":"X","legs":"X"},"bonus":1.7600000000000013},{"rt":1930.2000000029802,"stimulus":"bees-with-color/bee-A2DF.svg","response":0,"trial_type":"image-button-response","trial_index":61,"time_elapsed":212739,"internal_node_id":"0.0-4.0-0.27","subject_id":"6167299d96c225c0dad1475c","study_id":"60edd13110225f80f9f3709b","session_id":"6196c4a2df81e93b5fdd6484","condition":"contingent","relevant_dimensions":["antennae","wings"],"bee_group":{"antennae":"A","wings":"1","pattern":"X","legs":"X"},"action":"harvest","summary":"good-harvest","bonus":1.7600000000000013},{"rt":484.20000000298023,"stimulus":"\n                    <p><b>Action: <em>harvest</em></b></p>\n                    <p>This is the bee that you just saw.</p>\n                    <img src=\"bees-with-color/bee-A2DF.svg\" width=\"200\">\n                    <p><span class=\"greenText\"><b>Successful harvest!</b></span><br>Your pay has increased by $0.02. Your bonus pay is now $0.76.</p>\n            ","response":0,"trial_type":"html-button-response","trial_index":62,"time_elapsed":213224,"internal_node_id":"0.0-4.0-1.27","subject_id":"6167299d96c225c0dad1475c","study_id":"60edd13110225f80f9f3709b","session_id":"6196c4a2df81e93b5fdd6484","condition":"contingent","relevant_dimensions":["antennae","wings"],"bee_group":{"antennae":"A","wings":"1","pattern":"X","legs":"X"},"bonus":1.7600000000000013},{"rt":1081.3000000044703,"stimulus":"bees-with-color/bee-A2SM.svg","response":0,"trial_type":"image-button-response","trial_index":63,"time_elapsed":214306,"internal_node_id":"0.0-4.0-0.28","subject_id":"6167299d96c225c0dad1475c","study_id":"60edd13110225f80f9f3709b","session_id":"6196c4a2df81e93b5fdd6484","condition":"contingent","relevant_dimensions":["antennae","wings"],"bee_group":{"antennae":"A","wings":"1","pattern":"X","legs":"X"},"action":"harvest","summary":"good-harvest","bonus":1.7600000000000013},{"rt":511.19999999552965,"stimulus":"\n                    <p><b>Action: <em>harvest</em></b></p>\n                    <p>This is the bee that you just saw.</p>\n                    <img src=\"bees-with-color/bee-A2SM.svg\" width=\"200\">\n                    <p><span class=\"greenText\"><b>Successful harvest!</b></span><br>Your pay has increased by $0.02. Your bonus pay is now $0.78.</p>\n            ","response":0,"trial_type":"html-button-response","trial_index":64,"time_elapsed":214818,"internal_node_id":"0.0-4.0-1.28","subject_id":"6167299d96c225c0dad1475c","study_id":"60edd13110225f80f9f3709b","session_id":"6196c4a2df81e93b5fdd6484","condition":"contingent","relevant_dimensions":["antennae","wings"],"bee_group":{"antennae":"A","wings":"1","pattern":"X","legs":"X"},"bonus":1.7600000000000013},{"rt":2360.1999999955297,"stimulus":"bees-with-color/bee-A1DM.svg","response":1,"trial_type":"image-button-response","trial_index":65,"time_elapsed":217179,"internal_node_id":"0.0-4.0-0.29","subject_id":"6167299d96c225c0dad1475c","study_id":"60edd13110225f80f9f3709b","session_id":"6196c4a2df81e93b5fdd6484","condition":"contingent","relevant_dimensions":["antennae","wings"],"bee_group":{"antennae":"A","wings":"1","pattern":"X","legs":"X"},"action":"avoid","summary":"good-avoid","bonus":1.7600000000000013},{"rt":630,"stimulus":"\n                    <p><b>Action: <em>avoid</em></b></p>\n                    <p>This is the bee that you just saw.</p>\n                    <img src=\"bees-with-color/bee-A1DM.svg\" width=\"200\">\n                    <p><br>Your bonus pay is unchanged, and remains at $0.78.</p>\n            ","response":0,"trial_type":"html-button-response","trial_index":66,"time_elapsed":217810,"internal_node_id":"0.0-4.0-1.29","subject_id":"6167299d96c225c0dad1475c","study_id":"60edd13110225f80f9f3709b","session_id":"6196c4a2df81e93b5fdd6484","condition":"contingent","relevant_dimensions":["antennae","wings"],"bee_group":{"antennae":"A","wings":"1","pattern":"X","legs":"X"},"bonus":1.7600000000000013},{"rt":842.2999999970198,"stimulus":"bees-with-color/bee-B1DM.svg","response":0,"trial_type":"image-button-response","trial_index":67,"time_elapsed":218653,"internal_node_id":"0.0-4.0-0.30","subject_id":"6167299d96c225c0dad1475c","study_id":"60edd13110225f80f9f3709b","session_id":"6196c4a2df81e93b5fdd6484","condition":"contingent","relevant_dimensions":["antennae","wings"],"bee_group":{"antennae":"A","wings":"1","pattern":"X","legs":"X"},"action":"harvest","summary":"good-harvest","bonus":1.7600000000000013},{"rt":482.1000000014901,"stimulus":"\n                    <p><b>Action: <em>harvest</em></b></p>\n                    <p>This is the bee that you just saw.</p>\n                    <img src=\"bees-with-color/bee-B1DM.svg\" width=\"200\">\n                    <p><span class=\"greenText\"><b>Successful harvest!</b></span><br>Your pay has increased by $0.02. Your bonus pay is now $0.80.</p>\n            ","response":0,"trial_type":"html-button-response","trial_index":68,"time_elapsed":219136,"internal_node_id":"0.0-4.0-1.30","subject_id":"6167299d96c225c0dad1475c","study_id":"60edd13110225f80f9f3709b","session_id":"6196c4a2df81e93b5fdd6484","condition":"contingent","relevant_dimensions":["antennae","wings"],"bee_group":{"antennae":"A","wings":"1","pattern":"X","legs":"X"},"bonus":1.7600000000000013},{"rt":1129.3999999985099,"stimulus":"bees-with-color/bee-A1SM.svg","response":1,"trial_type":"image-button-response","trial_index":69,"time_elapsed":220266,"internal_node_id":"0.0-4.0-0.31","subject_id":"6167299d96c225c0dad1475c","study_id":"60edd13110225f80f9f3709b","session_id":"6196c4a2df81e93b5fdd6484","condition":"contingent","relevant_dimensions":["antennae","wings"],"bee_group":{"antennae":"A","wings":"1","pattern":"X","legs":"X"},"action":"avoid","summary":"good-avoid","bonus":1.7600000000000013},{"rt":570.4000000059605,"stimulus":"\n                    <p><b>Action: <em>avoid</em></b></p>\n                    <p>This is the bee that you just saw.</p>\n                    <img src=\"bees-with-color/bee-A1SM.svg\" width=\"200\">\n                    <p><br>Your bonus pay is unchanged, and remains at $0.80.</p>\n            ","response":0,"trial_type":"html-button-response","trial_index":70,"time_elapsed":220837,"internal_node_id":"0.0-4.0-1.31","subject_id":"6167299d96c225c0dad1475c","study_id":"60edd13110225f80f9f3709b","session_id":"6196c4a2df81e93b5fdd6484","condition":"contingent","relevant_dimensions":["antennae","wings"],"bee_group":{"antennae":"A","wings":"1","pattern":"X","legs":"X"},"bonus":1.7600000000000013},{"rt":1512.2000000029802,"stimulus":"bees-with-color/bee-A1SM.svg","response":1,"trial_type":"image-button-response","trial_index":71,"time_elapsed":222350,"internal_node_id":"0.0-4.0-0.32","subject_id":"6167299d96c225c0dad1475c","study_id":"60edd13110225f80f9f3709b","session_id":"6196c4a2df81e93b5fdd6484","condition":"contingent","relevant_dimensions":["antennae","wings"],"bee_group":{"antennae":"A","wings":"1","pattern":"X","legs":"X"},"action":"avoid","summary":"good-avoid","bonus":1.7600000000000013},{"rt":411.20000000298023,"stimulus":"\n                    <p><b>Action: <em>avoid</em></b></p>\n                    <p>This is the bee that you just saw.</p>\n                    <img src=\"bees-with-color/bee-A1SM.svg\" width=\"200\">\n                    <p><br>Your bonus pay is unchanged, and remains at $0.80.</p>\n            ","response":0,"trial_type":"html-button-response","trial_index":72,"time_elapsed":222762,"internal_node_id":"0.0-4.0-1.32","subject_id":"6167299d96c225c0dad1475c","study_id":"60edd13110225f80f9f3709b","session_id":"6196c4a2df81e93b5fdd6484","condition":"contingent","relevant_dimensions":["antennae","wings"],"bee_group":{"antennae":"A","wings":"1","pattern":"X","legs":"X"},"bonus":1.7600000000000013},{"rt":739.3000000044703,"stimulus":"bees-with-color/bee-B1SM.svg","response":0,"trial_type":"image-button-response","trial_index":73,"time_elapsed":223502,"internal_node_id":"0.0-4.0-0.33","subject_id":"6167299d96c225c0dad1475c","study_id":"60edd13110225f80f9f3709b","session_id":"6196c4a2df81e93b5fdd6484","condition":"contingent","relevant_dimensions":["antennae","wings"],"bee_group":{"antennae":"A","wings":"1","pattern":"X","legs":"X"},"action":"harvest","summary":"good-harvest","bonus":1.7600000000000013},{"rt":421.79999999701977,"stimulus":"\n                    <p><b>Action: <em>harvest</em></b></p>\n                    <p>This is the bee that you just saw.</p>\n                    <img src=\"bees-with-color/bee-B1SM.svg\" width=\"200\">\n                    <p><span class=\"greenText\"><b>Successful harvest!</b></span><br>Your pay has increased by $0.02. Your bonus pay is now $0.82.</p>\n            ","response":0,"trial_type":"html-button-response","trial_index":74,"time_elapsed":223925,"internal_node_id":"0.0-4.0-1.33","subject_id":"6167299d96c225c0dad1475c","study_id":"60edd13110225f80f9f3709b","session_id":"6196c4a2df81e93b5fdd6484","condition":"contingent","relevant_dimensions":["antennae","wings"],"bee_group":{"antennae":"A","wings":"1","pattern":"X","legs":"X"},"bonus":1.7600000000000013},{"rt":1325.3000000044703,"stimulus":"bees-with-color/bee-A1SF.svg","response":1,"trial_type":"image-button-response","trial_index":75,"time_elapsed":225251,"internal_node_id":"0.0-4.0-0.34","subject_id":"6167299d96c225c0dad1475c","study_id":"60edd13110225f80f9f3709b","session_id":"6196c4a2df81e93b5fdd6484","condition":"contingent","relevant_dimensions":["antennae","wings"],"bee_group":{"antennae":"A","wings":"1","pattern":"X","legs":"X"},"action":"avoid","summary":"good-avoid","bonus":1.7600000000000013},{"rt":448.20000000298023,"stimulus":"\n                    <p><b>Action: <em>avoid</em></b></p>\n                    <p>This is the bee that you just saw.</p>\n                    <img src=\"bees-with-color/bee-A1SF.svg\" width=\"200\">\n                    <p><br>Your bonus pay is unchanged, and remains at $0.82.</p>\n            ","response":0,"trial_type":"html-button-response","trial_index":76,"time_elapsed":225700,"internal_node_id":"0.0-4.0-1.34","subject_id":"6167299d96c225c0dad1475c","study_id":"60edd13110225f80f9f3709b","session_id":"6196c4a2df81e93b5fdd6484","condition":"contingent","relevant_dimensions":["antennae","wings"],"bee_group":{"antennae":"A","wings":"1","pattern":"X","legs":"X"},"bonus":1.7600000000000013},{"rt":1435.2000000029802,"stimulus":"bees-with-color/bee-B1DM.svg","response":0,"trial_type":"image-button-response","trial_index":77,"time_elapsed":227136,"internal_node_id":"0.0-4.0-0.35","subject_id":"6167299d96c225c0dad1475c","study_id":"60edd13110225f80f9f3709b","session_id":"6196c4a2df81e93b5fdd6484","condition":"contingent","relevant_dimensions":["antennae","wings"],"bee_group":{"antennae":"A","wings":"1","pattern":"X","legs":"X"},"action":"harvest","summary":"good-harvest","bonus":1.7600000000000013},{"rt":829.2000000029802,"stimulus":"\n                    <p><b>Action: <em>harvest</em></b></p>\n                    <p>This is the bee that you just saw.</p>\n                    <img src=\"bees-with-color/bee-B1DM.svg\" width=\"200\">\n                    <p><span class=\"greenText\"><b>Successful harvest!</b></span><br>Your pay has increased by $0.02. Your bonus pay is now $0.84.</p>\n            ","response":0,"trial_type":"html-button-response","trial_index":78,"time_elapsed":227966,"internal_node_id":"0.0-4.0-1.35","subject_id":"6167299d96c225c0dad1475c","study_id":"60edd13110225f80f9f3709b","session_id":"6196c4a2df81e93b5fdd6484","condition":"contingent","relevant_dimensions":["antennae","wings"],"bee_group":{"antennae":"A","wings":"1","pattern":"X","legs":"X"},"bonus":1.7600000000000013},{"rt":701.3000000044703,"stimulus":"bees-with-color/bee-B1SF.svg","response":0,"trial_type":"image-button-response","trial_index":79,"time_elapsed":228668,"internal_node_id":"0.0-4.0-0.36","subject_id":"6167299d96c225c0dad1475c","study_id":"60edd13110225f80f9f3709b","session_id":"6196c4a2df81e93b5fdd6484","condition":"contingent","relevant_dimensions":["antennae","wings"],"bee_group":{"antennae":"A","wings":"1","pattern":"X","legs":"X"},"action":"harvest","summary":"good-harvest","bonus":1.7600000000000013},{"rt":529.2000000029802,"stimulus":"\n                    <p><b>Action: <em>harvest</em></b></p>\n                    <p>This is the bee that you just saw.</p>\n                    <img src=\"bees-with-color/bee-B1SF.svg\" width=\"200\">\n                    <p><span class=\"greenText\"><b>Successful harvest!</b></span><br>Your pay has increased by $0.02. Your bonus pay is now $0.86.</p>\n            ","response":0,"trial_type":"html-button-response","trial_index":80,"time_elapsed":229198,"internal_node_id":"0.0-4.0-1.36","subject_id":"6167299d96c225c0dad1475c","study_id":"60edd13110225f80f9f3709b","session_id":"6196c4a2df81e93b5fdd6484","condition":"contingent","relevant_dimensions":["antennae","wings"],"bee_group":{"antennae":"A","wings":"1","pattern":"X","legs":"X"},"bonus":1.7600000000000013},{"rt":1016.3000000044703,"stimulus":"bees-with-color/bee-B2SF.svg","response":0,"trial_type":"image-button-response","trial_index":81,"time_elapsed":230216,"internal_node_id":"0.0-4.0-0.37","subject_id":"6167299d96c225c0dad1475c","study_id":"60edd13110225f80f9f3709b","session_id":"6196c4a2df81e93b5fdd6484","condition":"contingent","relevant_dimensions":["antennae","wings"],"bee_group":{"antennae":"A","wings":"1","pattern":"X","legs":"X"},"action":"harvest","summary":"good-harvest","bonus":1.7600000000000013},{"rt":407.1000000014901,"stimulus":"\n                    <p><b>Action: <em>harvest</em></b></p>\n                    <p>This is the bee that you just saw.</p>\n                    <img src=\"bees-with-color/bee-B2SF.svg\" width=\"200\">\n                    <p><span class=\"greenText\"><b>Successful harvest!</b></span><br>Your pay has increased by $0.02. Your bonus pay is now $0.88.</p>\n            ","response":0,"trial_type":"html-button-response","trial_index":82,"time_elapsed":230624,"internal_node_id":"0.0-4.0-1.37","subject_id":"6167299d96c225c0dad1475c","study_id":"60edd13110225f80f9f3709b","session_id":"6196c4a2df81e93b5fdd6484","condition":"contingent","relevant_dimensions":["antennae","wings"],"bee_group":{"antennae":"A","wings":"1","pattern":"X","legs":"X"},"bonus":1.7600000000000013},{"rt":596.3999999985099,"stimulus":"bees-with-color/bee-B2DF.svg","response":0,"trial_type":"image-button-response","trial_index":83,"time_elapsed":231221,"internal_node_id":"0.0-4.0-0.38","subject_id":"6167299d96c225c0dad1475c","study_id":"60edd13110225f80f9f3709b","session_id":"6196c4a2df81e93b5fdd6484","condition":"contingent","relevant_dimensions":["antennae","wings"],"bee_group":{"antennae":"A","wings":"1","pattern":"X","legs":"X"},"action":"harvest","summary":"good-harvest","bonus":1.7600000000000013},{"rt":409,"stimulus":"\n                    <p><b>Action: <em>harvest</em></b></p>\n                    <p>This is the bee that you just saw.</p>\n                    <img src=\"bees-with-color/bee-B2DF.svg\" width=\"200\">\n                    <p><span class=\"greenText\"><b>Successful harvest!</b></span><br>Your pay has increased by $0.02. Your bonus pay is now $0.90.</p>\n            ","response":0,"trial_type":"html-button-response","trial_index":84,"time_elapsed":231631,"internal_node_id":"0.0-4.0-1.38","subject_id":"6167299d96c225c0dad1475c","study_id":"60edd13110225f80f9f3709b","session_id":"6196c4a2df81e93b5fdd6484","condition":"contingent","relevant_dimensions":["antennae","wings"],"bee_group":{"antennae":"A","wings":"1","pattern":"X","legs":"X"},"bonus":1.7600000000000013},{"rt":1399.1000000014901,"stimulus":"bees-with-color/bee-B2DM.svg","response":0,"trial_type":"image-button-response","trial_index":85,"time_elapsed":233031,"internal_node_id":"0.0-4.0-0.39","subject_id":"6167299d96c225c0dad1475c","study_id":"60edd13110225f80f9f3709b","session_id":"6196c4a2df81e93b5fdd6484","condition":"contingent","relevant_dimensions":["antennae","wings"],"bee_group":{"antennae":"A","wings":"1","pattern":"X","legs":"X"},"action":"harvest","summary":"good-harvest","bonus":1.7600000000000013},{"rt":864.1000000014901,"stimulus":"\n                    <p><b>Action: <em>harvest</em></b></p>\n                    <p>This is the bee that you just saw.</p>\n                    <img src=\"bees-with-color/bee-B2DM.svg\" width=\"200\">\n                    <p><span class=\"greenText\"><b>Successful harvest!</b></span><br>Your pay has increased by $0.02. Your bonus pay is now $0.92.</p>\n            ","response":0,"trial_type":"html-button-response","trial_index":86,"time_elapsed":233896,"internal_node_id":"0.0-4.0-1.39","subject_id":"6167299d96c225c0dad1475c","study_id":"60edd13110225f80f9f3709b","session_id":"6196c4a2df81e93b5fdd6484","condition":"contingent","relevant_dimensions":["antennae","wings"],"bee_group":{"antennae":"A","wings":"1","pattern":"X","legs":"X"},"bonus":1.7600000000000013},{"rt":965.2999999970198,"stimulus":"bees-with-color/bee-A2SM.svg","response":0,"trial_type":"image-button-response","trial_index":87,"time_elapsed":234862,"internal_node_id":"0.0-4.0-0.40","subject_id":"6167299d96c225c0dad1475c","study_id":"60edd13110225f80f9f3709b","session_id":"6196c4a2df81e93b5fdd6484","condition":"contingent","relevant_dimensions":["antennae","wings"],"bee_group":{"antennae":"A","wings":"1","pattern":"X","legs":"X"},"action":"harvest","summary":"good-harvest","bonus":1.7600000000000013},{"rt":461.1000000014901,"stimulus":"\n                    <p><b>Action: <em>harvest</em></b></p>\n                    <p>This is the bee that you just saw.</p>\n                    <img src=\"bees-with-color/bee-A2SM.svg\" width=\"200\">\n                    <p><span class=\"greenText\"><b>Successful harvest!</b></span><br>Your pay has increased by $0.02. Your bonus pay is now $0.94.</p>\n            ","response":0,"trial_type":"html-button-response","trial_index":88,"time_elapsed":235324,"internal_node_id":"0.0-4.0-1.40","subject_id":"6167299d96c225c0dad1475c","study_id":"60edd13110225f80f9f3709b","session_id":"6196c4a2df81e93b5fdd6484","condition":"contingent","relevant_dimensions":["antennae","wings"],"bee_group":{"antennae":"A","wings":"1","pattern":"X","legs":"X"},"bonus":1.7600000000000013},{"rt":1457.3000000044703,"stimulus":"bees-with-color/bee-A2DM.svg","response":0,"trial_type":"image-button-response","trial_index":89,"time_elapsed":236782,"internal_node_id":"0.0-4.0-0.41","subject_id":"6167299d96c225c0dad1475c","study_id":"60edd13110225f80f9f3709b","session_id":"6196c4a2df81e93b5fdd6484","condition":"contingent","relevant_dimensions":["antennae","wings"],"bee_group":{"antennae":"A","wings":"1","pattern":"X","legs":"X"},"action":"harvest","summary":"good-harvest","bonus":1.7600000000000013},{"rt":1005.8999999985099,"stimulus":"\n                    <p><b>Action: <em>harvest</em></b></p>\n                    <p>This is the bee that you just saw.</p>\n                    <img src=\"bees-with-color/bee-A2DM.svg\" width=\"200\">\n                    <p><span class=\"greenText\"><b>Successful harvest!</b></span><br>Your pay has increased by $0.02. Your bonus pay is now $0.96.</p>\n            ","response":0,"trial_type":"html-button-response","trial_index":90,"time_elapsed":237789,"internal_node_id":"0.0-4.0-1.41","subject_id":"6167299d96c225c0dad1475c","study_id":"60edd13110225f80f9f3709b","session_id":"6196c4a2df81e93b5fdd6484","condition":"contingent","relevant_dimensions":["antennae","wings"],"bee_group":{"antennae":"A","wings":"1","pattern":"X","legs":"X"},"bonus":1.7600000000000013},{"rt":1731.1999999955297,"stimulus":"bees-with-color/bee-B2SM.svg","response":0,"trial_type":"image-button-response","trial_index":91,"time_elapsed":239521,"internal_node_id":"0.0-4.0-0.42","subject_id":"6167299d96c225c0dad1475c","study_id":"60edd13110225f80f9f3709b","session_id":"6196c4a2df81e93b5fdd6484","condition":"contingent","relevant_dimensions":["antennae","wings"],"bee_group":{"antennae":"A","wings":"1","pattern":"X","legs":"X"},"action":"harvest","summary":"good-harvest","bonus":1.7600000000000013},{"rt":507.19999999552965,"stimulus":"\n                    <p><b>Action: <em>harvest</em></b></p>\n                    <p>This is the bee that you just saw.</p>\n                    <img src=\"bees-with-color/bee-B2SM.svg\" width=\"200\">\n                    <p><span class=\"greenText\"><b>Successful harvest!</b></span><br>Your pay has increased by $0.02. Your bonus pay is now $0.98.</p>\n            ","response":0,"trial_type":"html-button-response","trial_index":92,"time_elapsed":240029,"internal_node_id":"0.0-4.0-1.42","subject_id":"6167299d96c225c0dad1475c","study_id":"60edd13110225f80f9f3709b","session_id":"6196c4a2df81e93b5fdd6484","condition":"contingent","relevant_dimensions":["antennae","wings"],"bee_group":{"antennae":"A","wings":"1","pattern":"X","legs":"X"},"bonus":1.7600000000000013},{"rt":1324.5,"stimulus":"bees-with-color/bee-A2SF.svg","response":0,"trial_type":"image-button-response","trial_index":93,"time_elapsed":241354,"internal_node_id":"0.0-4.0-0.43","subject_id":"6167299d96c225c0dad1475c","study_id":"60edd13110225f80f9f3709b","session_id":"6196c4a2df81e93b5fdd6484","condition":"contingent","relevant_dimensions":["antennae","wings"],"bee_group":{"antennae":"A","wings":"1","pattern":"X","legs":"X"},"action":"harvest","summary":"good-harvest","bonus":1.7600000000000013},{"rt":377.19999999552965,"stimulus":"\n                    <p><b>Action: <em>harvest</em></b></p>\n                    <p>This is the bee that you just saw.</p>\n                    <img src=\"bees-with-color/bee-A2SF.svg\" width=\"200\">\n                    <p><span class=\"greenText\"><b>Successful harvest!</b></span><br>Your pay has increased by $0.02. Your bonus pay is now $1.00.</p>\n            ","response":0,"trial_type":"html-button-response","trial_index":94,"time_elapsed":241732,"internal_node_id":"0.0-4.0-1.43","subject_id":"6167299d96c225c0dad1475c","study_id":"60edd13110225f80f9f3709b","session_id":"6196c4a2df81e93b5fdd6484","condition":"contingent","relevant_dimensions":["antennae","wings"],"bee_group":{"antennae":"A","wings":"1","pattern":"X","legs":"X"},"bonus":1.7600000000000013},{"rt":983.2999999970198,"stimulus":"bees-with-color/bee-A2DF.svg","response":0,"trial_type":"image-button-response","trial_index":95,"time_elapsed":242716,"internal_node_id":"0.0-4.0-0.44","subject_id":"6167299d96c225c0dad1475c","study_id":"60edd13110225f80f9f3709b","session_id":"6196c4a2df81e93b5fdd6484","condition":"contingent","relevant_dimensions":["antennae","wings"],"bee_group":{"antennae":"A","wings":"1","pattern":"X","legs":"X"},"action":"harvest","summary":"good-harvest","bonus":1.7600000000000013},{"rt":1169.0999999940395,"stimulus":"\n                    <p><b>Action: <em>harvest</em></b></p>\n                    <p>This is the bee that you just saw.</p>\n                    <img src=\"bees-with-color/bee-A2DF.svg\" width=\"200\">\n                    <p><span class=\"greenText\"><b>Successful harvest!</b></span><br>Your pay has increased by $0.02. Your bonus pay is now $1.02.</p>\n            ","response":0,"trial_type":"html-button-response","trial_index":96,"time_elapsed":243886,"internal_node_id":"0.0-4.0-1.44","subject_id":"6167299d96c225c0dad1475c","study_id":"60edd13110225f80f9f3709b","session_id":"6196c4a2df81e93b5fdd6484","condition":"contingent","relevant_dimensions":["antennae","wings"],"bee_group":{"antennae":"A","wings":"1","pattern":"X","legs":"X"},"bonus":1.7600000000000013},{"rt":1239.8999999985099,"stimulus":"bees-with-color/bee-B1DF.svg","response":0,"trial_type":"image-button-response","trial_index":97,"time_elapsed":245126,"internal_node_id":"0.0-4.0-0.45","subject_id":"6167299d96c225c0dad1475c","study_id":"60edd13110225f80f9f3709b","session_id":"6196c4a2df81e93b5fdd6484","condition":"contingent","relevant_dimensions":["antennae","wings"],"bee_group":{"antennae":"A","wings":"1","pattern":"X","legs":"X"},"action":"harvest","summary":"good-harvest","bonus":1.7600000000000013},{"rt":408.59999999403954,"stimulus":"\n                    <p><b>Action: <em>harvest</em></b></p>\n                    <p>This is the bee that you just saw.</p>\n                    <img src=\"bees-with-color/bee-B1DF.svg\" width=\"200\">\n                    <p><span class=\"greenText\"><b>Successful harvest!</b></span><br>Your pay has increased by $0.02. Your bonus pay is now $1.04.</p>\n            ","response":0,"trial_type":"html-button-response","trial_index":98,"time_elapsed":245536,"internal_node_id":"0.0-4.0-1.45","subject_id":"6167299d96c225c0dad1475c","study_id":"60edd13110225f80f9f3709b","session_id":"6196c4a2df81e93b5fdd6484","condition":"contingent","relevant_dimensions":["antennae","wings"],"bee_group":{"antennae":"A","wings":"1","pattern":"X","legs":"X"},"bonus":1.7600000000000013},{"rt":1192.6000000014901,"stimulus":"bees-with-color/bee-A1DM.svg","response":1,"trial_type":"image-button-response","trial_index":99,"time_elapsed":246729,"internal_node_id":"0.0-4.0-0.46","subject_id":"6167299d96c225c0dad1475c","study_id":"60edd13110225f80f9f3709b","session_id":"6196c4a2df81e93b5fdd6484","condition":"contingent","relevant_dimensions":["antennae","wings"],"bee_group":{"antennae":"A","wings":"1","pattern":"X","legs":"X"},"action":"avoid","summary":"good-avoid","bonus":1.7600000000000013},{"rt":592.7999999970198,"stimulus":"\n                    <p><b>Action: <em>avoid</em></b></p>\n                    <p>This is the bee that you just saw.</p>\n                    <img src=\"bees-with-color/bee-A1DM.svg\" width=\"200\">\n                    <p><br>Your bonus pay is unchanged, and remains at $1.04.</p>\n            ","response":0,"trial_type":"html-button-response","trial_index":100,"time_elapsed":247323,"internal_node_id":"0.0-4.0-1.46","subject_id":"6167299d96c225c0dad1475c","study_id":"60edd13110225f80f9f3709b","session_id":"6196c4a2df81e93b5fdd6484","condition":"contingent","relevant_dimensions":["antennae","wings"],"bee_group":{"antennae":"A","wings":"1","pattern":"X","legs":"X"},"bonus":1.7600000000000013},{"rt":1428.2999999970198,"stimulus":"bees-with-color/bee-A1DF.svg","response":1,"trial_type":"image-button-response","trial_index":101,"time_elapsed":248752,"internal_node_id":"0.0-4.0-0.47","subject_id":"6167299d96c225c0dad1475c","study_id":"60edd13110225f80f9f3709b","session_id":"6196c4a2df81e93b5fdd6484","condition":"contingent","relevant_dimensions":["antennae","wings"],"bee_group":{"antennae":"A","wings":"1","pattern":"X","legs":"X"},"action":"avoid","summary":"good-avoid","bonus":1.7600000000000013},{"rt":461.1000000014901,"stimulus":"\n                    <p><b>Action: <em>avoid</em></b></p>\n                    <p>This is the bee that you just saw.</p>\n                    <img src=\"bees-with-color/bee-A1DF.svg\" width=\"200\">\n                    <p><br>Your bonus pay is unchanged, and remains at $1.04.</p>\n            ","response":0,"trial_type":"html-button-response","trial_index":102,"time_elapsed":249214,"internal_node_id":"0.0-4.0-1.47","subject_id":"6167299d96c225c0dad1475c","study_id":"60edd13110225f80f9f3709b","session_id":"6196c4a2df81e93b5fdd6484","condition":"contingent","relevant_dimensions":["antennae","wings"],"bee_group":{"antennae":"A","wings":"1","pattern":"X","legs":"X"},"bonus":1.7600000000000013},{"rt":704.2999999970198,"stimulus":"bees-with-color/bee-B2DM.svg","response":0,"trial_type":"image-button-response","trial_index":103,"time_elapsed":249919,"internal_node_id":"0.0-4.0-0.48","subject_id":"6167299d96c225c0dad1475c","study_id":"60edd13110225f80f9f3709b","session_id":"6196c4a2df81e93b5fdd6484","condition":"contingent","relevant_dimensions":["antennae","wings"],"bee_group":{"antennae":"A","wings":"1","pattern":"X","legs":"X"},"action":"harvest","summary":"good-harvest","bonus":1.7600000000000013},{"rt":423.09999999403954,"stimulus":"\n                    <p><b>Action: <em>harvest</em></b></p>\n                    <p>This is the bee that you just saw.</p>\n                    <img src=\"bees-with-color/bee-B2DM.svg\" width=\"200\">\n                    <p><span class=\"greenText\"><b>Successful harvest!</b></span><br>Your pay has increased by $0.02. Your bonus pay is now $1.06.</p>\n            ","response":0,"trial_type":"html-button-response","trial_index":104,"time_elapsed":250343,"internal_node_id":"0.0-4.0-1.48","subject_id":"6167299d96c225c0dad1475c","study_id":"60edd13110225f80f9f3709b","session_id":"6196c4a2df81e93b5fdd6484","condition":"contingent","relevant_dimensions":["antennae","wings"],"bee_group":{"antennae":"A","wings":"1","pattern":"X","legs":"X"},"bonus":1.7600000000000013},{"rt":810.2000000029802,"stimulus":"bees-with-color/bee-B2SM.svg","response":0,"trial_type":"image-button-response","trial_index":105,"time_elapsed":251154,"internal_node_id":"0.0-4.0-0.49","subject_id":"6167299d96c225c0dad1475c","study_id":"60edd13110225f80f9f3709b","session_id":"6196c4a2df81e93b5fdd6484","condition":"contingent","relevant_dimensions":["antennae","wings"],"bee_group":{"antennae":"A","wings":"1","pattern":"X","legs":"X"},"action":"harvest","summary":"good-harvest","bonus":1.7600000000000013},{"rt":359.29999999701977,"stimulus":"\n                    <p><b>Action: <em>harvest</em></b></p>\n                    <p>This is the bee that you just saw.</p>\n                    <img src=\"bees-with-color/bee-B2SM.svg\" width=\"200\">\n                    <p><span class=\"greenText\"><b>Successful harvest!</b></span><br>Your pay has increased by $0.02. Your bonus pay is now $1.08.</p>\n            ","response":0,"trial_type":"html-button-response","trial_index":106,"time_elapsed":251514,"internal_node_id":"0.0-4.0-1.49","subject_id":"6167299d96c225c0dad1475c","study_id":"60edd13110225f80f9f3709b","session_id":"6196c4a2df81e93b5fdd6484","condition":"contingent","relevant_dimensions":["antennae","wings"],"bee_group":{"antennae":"A","wings":"1","pattern":"X","legs":"X"},"bonus":1.7600000000000013},{"rt":1107.1999999955297,"stimulus":"bees-with-color/bee-A2SM.svg","response":0,"trial_type":"image-button-response","trial_index":107,"time_elapsed":252622,"internal_node_id":"0.0-4.0-0.50","subject_id":"6167299d96c225c0dad1475c","study_id":"60edd13110225f80f9f3709b","session_id":"6196c4a2df81e93b5fdd6484","condition":"contingent","relevant_dimensions":["antennae","wings"],"bee_group":{"antennae":"A","wings":"1","pattern":"X","legs":"X"},"action":"harvest","summary":"good-harvest","bonus":1.7600000000000013},{"rt":680.1999999955297,"stimulus":"\n                    <p><b>Action: <em>harvest</em></b></p>\n                    <p>This is the bee that you just saw.</p>\n                    <img src=\"bees-with-color/bee-A2SM.svg\" width=\"200\">\n                    <p><span class=\"greenText\"><b>Successful harvest!</b></span><br>Your pay has increased by $0.02. Your bonus pay is now $1.10.</p>\n            ","response":0,"trial_type":"html-button-response","trial_index":108,"time_elapsed":253303,"internal_node_id":"0.0-4.0-1.50","subject_id":"6167299d96c225c0dad1475c","study_id":"60edd13110225f80f9f3709b","session_id":"6196c4a2df81e93b5fdd6484","condition":"contingent","relevant_dimensions":["antennae","wings"],"bee_group":{"antennae":"A","wings":"1","pattern":"X","legs":"X"},"bonus":1.7600000000000013},{"rt":1501.3000000044703,"stimulus":"bees-with-color/bee-A1DM.svg","response":1,"trial_type":"image-button-response","trial_index":109,"time_elapsed":254805,"internal_node_id":"0.0-4.0-0.51","subject_id":"6167299d96c225c0dad1475c","study_id":"60edd13110225f80f9f3709b","session_id":"6196c4a2df81e93b5fdd6484","condition":"contingent","relevant_dimensions":["antennae","wings"],"bee_group":{"antennae":"A","wings":"1","pattern":"X","legs":"X"},"action":"avoid","summary":"good-avoid","bonus":1.7600000000000013},{"rt":545.1000000014901,"stimulus":"\n                    <p><b>Action: <em>avoid</em></b></p>\n                    <p>This is the bee that you just saw.</p>\n                    <img src=\"bees-with-color/bee-A1DM.svg\" width=\"200\">\n                    <p><br>Your bonus pay is unchanged, and remains at $1.10.</p>\n            ","response":0,"trial_type":"html-button-response","trial_index":110,"time_elapsed":255351,"internal_node_id":"0.0-4.0-1.51","subject_id":"6167299d96c225c0dad1475c","study_id":"60edd13110225f80f9f3709b","session_id":"6196c4a2df81e93b5fdd6484","condition":"contingent","relevant_dimensions":["antennae","wings"],"bee_group":{"antennae":"A","wings":"1","pattern":"X","legs":"X"},"bonus":1.7600000000000013},{"rt":911.2000000029802,"stimulus":"bees-with-color/bee-B2SF.svg","response":0,"trial_type":"image-button-response","trial_index":111,"time_elapsed":256263,"internal_node_id":"0.0-4.0-0.52","subject_id":"6167299d96c225c0dad1475c","study_id":"60edd13110225f80f9f3709b","session_id":"6196c4a2df81e93b5fdd6484","condition":"contingent","relevant_dimensions":["antennae","wings"],"bee_group":{"antennae":"A","wings":"1","pattern":"X","legs":"X"},"action":"harvest","summary":"good-harvest","bonus":1.7600000000000013},{"rt":404,"stimulus":"\n                    <p><b>Action: <em>harvest</em></b></p>\n                    <p>This is the bee that you just saw.</p>\n                    <img src=\"bees-with-color/bee-B2SF.svg\" width=\"200\">\n                    <p><span class=\"greenText\"><b>Successful harvest!</b></span><br>Your pay has increased by $0.02. Your bonus pay is now $1.12.</p>\n            ","response":0,"trial_type":"html-button-response","trial_index":112,"time_elapsed":256667,"internal_node_id":"0.0-4.0-1.52","subject_id":"6167299d96c225c0dad1475c","study_id":"60edd13110225f80f9f3709b","session_id":"6196c4a2df81e93b5fdd6484","condition":"contingent","relevant_dimensions":["antennae","wings"],"bee_group":{"antennae":"A","wings":"1","pattern":"X","legs":"X"},"bonus":1.7600000000000013},{"rt":1143.4000000059605,"stimulus":"bees-with-color/bee-A1SM.svg","response":1,"trial_type":"image-button-response","trial_index":113,"time_elapsed":257812,"internal_node_id":"0.0-4.0-0.53","subject_id":"6167299d96c225c0dad1475c","study_id":"60edd13110225f80f9f3709b","session_id":"6196c4a2df81e93b5fdd6484","condition":"contingent","relevant_dimensions":["antennae","wings"],"bee_group":{"antennae":"A","wings":"1","pattern":"X","legs":"X"},"action":"avoid","summary":"good-avoid","bonus":1.7600000000000013},{"rt":453.1000000014901,"stimulus":"\n                    <p><b>Action: <em>avoid</em></b></p>\n                    <p>This is the bee that you just saw.</p>\n                    <img src=\"bees-with-color/bee-A1SM.svg\" width=\"200\">\n                    <p><br>Your bonus pay is unchanged, and remains at $1.12.</p>\n            ","response":0,"trial_type":"html-button-response","trial_index":114,"time_elapsed":258265,"internal_node_id":"0.0-4.0-1.53","subject_id":"6167299d96c225c0dad1475c","study_id":"60edd13110225f80f9f3709b","session_id":"6196c4a2df81e93b5fdd6484","condition":"contingent","relevant_dimensions":["antennae","wings"],"bee_group":{"antennae":"A","wings":"1","pattern":"X","legs":"X"},"bonus":1.7600000000000013},{"rt":916.3000000044703,"stimulus":"bees-with-color/bee-A2DM.svg","response":0,"trial_type":"image-button-response","trial_index":115,"time_elapsed":259182,"internal_node_id":"0.0-4.0-0.54","subject_id":"6167299d96c225c0dad1475c","study_id":"60edd13110225f80f9f3709b","session_id":"6196c4a2df81e93b5fdd6484","condition":"contingent","relevant_dimensions":["antennae","wings"],"bee_group":{"antennae":"A","wings":"1","pattern":"X","legs":"X"},"action":"harvest","summary":"good-harvest","bonus":1.7600000000000013},{"rt":623.2000000029802,"stimulus":"\n                    <p><b>Action: <em>harvest</em></b></p>\n                    <p>This is the bee that you just saw.</p>\n                    <img src=\"bees-with-color/bee-A2DM.svg\" width=\"200\">\n                    <p><span class=\"greenText\"><b>Successful harvest!</b></span><br>Your pay has increased by $0.02. Your bonus pay is now $1.14.</p>\n            ","response":0,"trial_type":"html-button-response","trial_index":116,"time_elapsed":259806,"internal_node_id":"0.0-4.0-1.54","subject_id":"6167299d96c225c0dad1475c","study_id":"60edd13110225f80f9f3709b","session_id":"6196c4a2df81e93b5fdd6484","condition":"contingent","relevant_dimensions":["antennae","wings"],"bee_group":{"antennae":"A","wings":"1","pattern":"X","legs":"X"},"bonus":1.7600000000000013},{"rt":1141.6000000014901,"stimulus":"bees-with-color/bee-A2SF.svg","response":0,"trial_type":"image-button-response","trial_index":117,"time_elapsed":260949,"internal_node_id":"0.0-4.0-0.55","subject_id":"6167299d96c225c0dad1475c","study_id":"60edd13110225f80f9f3709b","session_id":"6196c4a2df81e93b5fdd6484","condition":"contingent","relevant_dimensions":["antennae","wings"],"bee_group":{"antennae":"A","wings":"1","pattern":"X","legs":"X"},"action":"harvest","summary":"good-harvest","bonus":1.7600000000000013},{"rt":715.1000000014901,"stimulus":"\n                    <p><b>Action: <em>harvest</em></b></p>\n                    <p>This is the bee that you just saw.</p>\n                    <img src=\"bees-with-color/bee-A2SF.svg\" width=\"200\">\n                    <p><span class=\"greenText\"><b>Successful harvest!</b></span><br>Your pay has increased by $0.02. Your bonus pay is now $1.16.</p>\n            ","response":0,"trial_type":"html-button-response","trial_index":118,"time_elapsed":261665,"internal_node_id":"0.0-4.0-1.55","subject_id":"6167299d96c225c0dad1475c","study_id":"60edd13110225f80f9f3709b","session_id":"6196c4a2df81e93b5fdd6484","condition":"contingent","relevant_dimensions":["antennae","wings"],"bee_group":{"antennae":"A","wings":"1","pattern":"X","legs":"X"},"bonus":1.7600000000000013},{"rt":1696.6000000014901,"stimulus":"bees-with-color/bee-B1DF.svg","response":0,"trial_type":"image-button-response","trial_index":119,"time_elapsed":263362,"internal_node_id":"0.0-4.0-0.56","subject_id":"6167299d96c225c0dad1475c","study_id":"60edd13110225f80f9f3709b","session_id":"6196c4a2df81e93b5fdd6484","condition":"contingent","relevant_dimensions":["antennae","wings"],"bee_group":{"antennae":"A","wings":"1","pattern":"X","legs":"X"},"action":"harvest","summary":"good-harvest","bonus":1.7600000000000013},{"rt":439.8999999985099,"stimulus":"\n                    <p><b>Action: <em>harvest</em></b></p>\n                    <p>This is the bee that you just saw.</p>\n                    <img src=\"bees-with-color/bee-B1DF.svg\" width=\"200\">\n                    <p><span class=\"greenText\"><b>Successful harvest!</b></span><br>Your pay has increased by $0.02. Your bonus pay is now $1.18.</p>\n            ","response":0,"trial_type":"html-button-response","trial_index":120,"time_elapsed":263802,"internal_node_id":"0.0-4.0-1.56","subject_id":"6167299d96c225c0dad1475c","study_id":"60edd13110225f80f9f3709b","session_id":"6196c4a2df81e93b5fdd6484","condition":"contingent","relevant_dimensions":["antennae","wings"],"bee_group":{"antennae":"A","wings":"1","pattern":"X","legs":"X"},"bonus":1.7600000000000013},{"rt":887.3999999985099,"stimulus":"bees-with-color/bee-B1DM.svg","response":0,"trial_type":"image-button-response","trial_index":121,"time_elapsed":264691,"internal_node_id":"0.0-4.0-0.57","subject_id":"6167299d96c225c0dad1475c","study_id":"60edd13110225f80f9f3709b","session_id":"6196c4a2df81e93b5fdd6484","condition":"contingent","relevant_dimensions":["antennae","wings"],"bee_group":{"antennae":"A","wings":"1","pattern":"X","legs":"X"},"action":"harvest","summary":"good-harvest","bonus":1.7600000000000013},{"rt":421.70000000298023,"stimulus":"\n                    <p><b>Action: <em>harvest</em></b></p>\n                    <p>This is the bee that you just saw.</p>\n                    <img src=\"bees-with-color/bee-B1DM.svg\" width=\"200\">\n                    <p><span class=\"greenText\"><b>Successful harvest!</b></span><br>Your pay has increased by $0.02. Your bonus pay is now $1.20.</p>\n            ","response":0,"trial_type":"html-button-response","trial_index":122,"time_elapsed":265114,"internal_node_id":"0.0-4.0-1.57","subject_id":"6167299d96c225c0dad1475c","study_id":"60edd13110225f80f9f3709b","session_id":"6196c4a2df81e93b5fdd6484","condition":"contingent","relevant_dimensions":["antennae","wings"],"bee_group":{"antennae":"A","wings":"1","pattern":"X","legs":"X"},"bonus":1.7600000000000013},{"rt":1194.3000000044703,"stimulus":"bees-with-color/bee-A1SF.svg","response":1,"trial_type":"image-button-response","trial_index":123,"time_elapsed":266309,"internal_node_id":"0.0-4.0-0.58","subject_id":"6167299d96c225c0dad1475c","study_id":"60edd13110225f80f9f3709b","session_id":"6196c4a2df81e93b5fdd6484","condition":"contingent","relevant_dimensions":["antennae","wings"],"bee_group":{"antennae":"A","wings":"1","pattern":"X","legs":"X"},"action":"avoid","summary":"good-avoid","bonus":1.7600000000000013},{"rt":417.1000000014901,"stimulus":"\n                    <p><b>Action: <em>avoid</em></b></p>\n                    <p>This is the bee that you just saw.</p>\n                    <img src=\"bees-with-color/bee-A1SF.svg\" width=\"200\">\n                    <p><br>Your bonus pay is unchanged, and remains at $1.20.</p>\n            ","response":0,"trial_type":"html-button-response","trial_index":124,"time_elapsed":266726,"internal_node_id":"0.0-4.0-1.58","subject_id":"6167299d96c225c0dad1475c","study_id":"60edd13110225f80f9f3709b","session_id":"6196c4a2df81e93b5fdd6484","condition":"contingent","relevant_dimensions":["antennae","wings"],"bee_group":{"antennae":"A","wings":"1","pattern":"X","legs":"X"},"bonus":1.7600000000000013},{"rt":1481.2999999970198,"stimulus":"bees-with-color/bee-B1SF.svg","response":0,"trial_type":"image-button-response","trial_index":125,"time_elapsed":268208,"internal_node_id":"0.0-4.0-0.59","subject_id":"6167299d96c225c0dad1475c","study_id":"60edd13110225f80f9f3709b","session_id":"6196c4a2df81e93b5fdd6484","condition":"contingent","relevant_dimensions":["antennae","wings"],"bee_group":{"antennae":"A","wings":"1","pattern":"X","legs":"X"},"action":"harvest","summary":"good-harvest","bonus":1.7600000000000013},{"rt":1175.3999999985099,"stimulus":"\n                    <p><b>Action: <em>harvest</em></b></p>\n                    <p>This is the bee that you just saw.</p>\n                    <img src=\"bees-with-color/bee-B1SF.svg\" width=\"200\">\n                    <p><span class=\"greenText\"><b>Successful harvest!</b></span><br>Your pay has increased by $0.02. Your bonus pay is now $1.22.</p>\n            ","response":0,"trial_type":"html-button-response","trial_index":126,"time_elapsed":269384,"internal_node_id":"0.0-4.0-1.59","subject_id":"6167299d96c225c0dad1475c","study_id":"60edd13110225f80f9f3709b","session_id":"6196c4a2df81e93b5fdd6484","condition":"contingent","relevant_dimensions":["antennae","wings"],"bee_group":{"antennae":"A","wings":"1","pattern":"X","legs":"X"},"bonus":1.7600000000000013},{"rt":1072.2000000029802,"stimulus":"bees-with-color/bee-A1DF.svg","response":1,"trial_type":"image-button-response","trial_index":127,"time_elapsed":270457,"internal_node_id":"0.0-4.0-0.60","subject_id":"6167299d96c225c0dad1475c","study_id":"60edd13110225f80f9f3709b","session_id":"6196c4a2df81e93b5fdd6484","condition":"contingent","relevant_dimensions":["antennae","wings"],"bee_group":{"antennae":"A","wings":"1","pattern":"X","legs":"X"},"action":"avoid","summary":"good-avoid","bonus":1.7600000000000013},{"rt":425.20000000298023,"stimulus":"\n                    <p><b>Action: <em>avoid</em></b></p>\n                    <p>This is the bee that you just saw.</p>\n                    <img src=\"bees-with-color/bee-A1DF.svg\" width=\"200\">\n                    <p><br>Your bonus pay is unchanged, and remains at $1.22.</p>\n            ","response":0,"trial_type":"html-button-response","trial_index":128,"time_elapsed":270883,"internal_node_id":"0.0-4.0-1.60","subject_id":"6167299d96c225c0dad1475c","study_id":"60edd13110225f80f9f3709b","session_id":"6196c4a2df81e93b5fdd6484","condition":"contingent","relevant_dimensions":["antennae","wings"],"bee_group":{"antennae":"A","wings":"1","pattern":"X","legs":"X"},"bonus":1.7600000000000013},{"rt":702.3999999985099,"stimulus":"bees-with-color/bee-B2DF.svg","response":0,"trial_type":"image-button-response","trial_index":129,"time_elapsed":271586,"internal_node_id":"0.0-4.0-0.61","subject_id":"6167299d96c225c0dad1475c","study_id":"60edd13110225f80f9f3709b","session_id":"6196c4a2df81e93b5fdd6484","condition":"contingent","relevant_dimensions":["antennae","wings"],"bee_group":{"antennae":"A","wings":"1","pattern":"X","legs":"X"},"action":"harvest","summary":"good-harvest","bonus":1.7600000000000013},{"rt":389.20000000298023,"stimulus":"\n                    <p><b>Action: <em>harvest</em></b></p>\n                    <p>This is the bee that you just saw.</p>\n                    <img src=\"bees-with-color/bee-B2DF.svg\" width=\"200\">\n                    <p><span class=\"greenText\"><b>Successful harvest!</b></span><br>Your pay has increased by $0.02. Your bonus pay is now $1.24.</p>\n            ","response":0,"trial_type":"html-button-response","trial_index":130,"time_elapsed":271976,"internal_node_id":"0.0-4.0-1.61","subject_id":"6167299d96c225c0dad1475c","study_id":"60edd13110225f80f9f3709b","session_id":"6196c4a2df81e93b5fdd6484","condition":"contingent","relevant_dimensions":["antennae","wings"],"bee_group":{"antennae":"A","wings":"1","pattern":"X","legs":"X"},"bonus":1.7600000000000013},{"rt":683.1000000014901,"stimulus":"bees-with-color/bee-B1SM.svg","response":0,"trial_type":"image-button-response","trial_index":131,"time_elapsed":272660,"internal_node_id":"0.0-4.0-0.62","subject_id":"6167299d96c225c0dad1475c","study_id":"60edd13110225f80f9f3709b","session_id":"6196c4a2df81e93b5fdd6484","condition":"contingent","relevant_dimensions":["antennae","wings"],"bee_group":{"antennae":"A","wings":"1","pattern":"X","legs":"X"},"action":"harvest","summary":"good-harvest","bonus":1.7600000000000013},{"rt":319.19999999552965,"stimulus":"\n                    <p><b>Action: <em>harvest</em></b></p>\n                    <p>This is the bee that you just saw.</p>\n                    <img src=\"bees-with-color/bee-B1SM.svg\" width=\"200\">\n                    <p><span class=\"greenText\"><b>Successful harvest!</b></span><br>Your pay has increased by $0.02. Your bonus pay is now $1.26.</p>\n            ","response":0,"trial_type":"html-button-response","trial_index":132,"time_elapsed":272980,"internal_node_id":"0.0-4.0-1.62","subject_id":"6167299d96c225c0dad1475c","study_id":"60edd13110225f80f9f3709b","session_id":"6196c4a2df81e93b5fdd6484","condition":"contingent","relevant_dimensions":["antennae","wings"],"bee_group":{"antennae":"A","wings":"1","pattern":"X","legs":"X"},"bonus":1.7600000000000013},{"rt":781.5,"stimulus":"bees-with-color/bee-A2DF.svg","response":0,"trial_type":"image-button-response","trial_index":133,"time_elapsed":273762,"internal_node_id":"0.0-4.0-0.63","subject_id":"6167299d96c225c0dad1475c","study_id":"60edd13110225f80f9f3709b","session_id":"6196c4a2df81e93b5fdd6484","condition":"contingent","relevant_dimensions":["antennae","wings"],"bee_group":{"antennae":"A","wings":"1","pattern":"X","legs":"X"},"action":"harvest","summary":"good-harvest","bonus":1.7600000000000013},{"rt":738,"stimulus":"\n                    <p><b>Action: <em>harvest</em></b></p>\n                    <p>This is the bee that you just saw.</p>\n                    <img src=\"bees-with-color/bee-A2DF.svg\" width=\"200\">\n                    <p><span class=\"greenText\"><b>Successful harvest!</b></span><br>Your pay has increased by $0.02. Your bonus pay is now $1.28.</p>\n            ","response":0,"trial_type":"html-button-response","trial_index":134,"time_elapsed":274501,"internal_node_id":"0.0-4.0-1.63","subject_id":"6167299d96c225c0dad1475c","study_id":"60edd13110225f80f9f3709b","session_id":"6196c4a2df81e93b5fdd6484","condition":"contingent","relevant_dimensions":["antennae","wings"],"bee_group":{"antennae":"A","wings":"1","pattern":"X","legs":"X"},"bonus":1.7600000000000013},{"rt":7839.10000000149,"stimulus":"You have completed the first part of this experiment.<br><br>You will now begin a shorter second part, in which you will receive no feedback.<br>The same rules regarding bonus pay apply.<br><br>Press any key to begin.","response":" ","trial_type":"html-keyboard-response","trial_index":135,"time_elapsed":282341,"internal_node_id":"0.0-5.0","subject_id":"6167299d96c225c0dad1475c","study_id":"60edd13110225f80f9f3709b","session_id":"6196c4a2df81e93b5fdd6484","condition":"contingent","relevant_dimensions":["antennae","wings"],"bee_group":{"antennae":"A","wings":"1","pattern":"X","legs":"X"},"bonus":1.7600000000000013},{"rt":2536.89999999851,"stimulus":"bees-with-color/bee-A1DM.svg","response":1,"trial_type":"image-button-response","trial_index":136,"time_elapsed":284882,"internal_node_id":"0.0-6.0-0.0","subject_id":"6167299d96c225c0dad1475c","study_id":"60edd13110225f80f9f3709b","session_id":"6196c4a2df81e93b5fdd6484","condition":"contingent","relevant_dimensions":["antennae","wings"],"bee_group":{"antennae":"A","wings":"1","pattern":"X","legs":"X"},"bonus":1.7600000000000013},{"rt":1121.7999999970198,"stimulus":"bees-with-color/bee-B1SM.svg","response":0,"trial_type":"image-button-response","trial_index":137,"time_elapsed":286005,"internal_node_id":"0.0-6.0-0.1","subject_id":"6167299d96c225c0dad1475c","study_id":"60edd13110225f80f9f3709b","session_id":"6196c4a2df81e93b5fdd6484","condition":"contingent","relevant_dimensions":["antennae","wings"],"bee_group":{"antennae":"A","wings":"1","pattern":"X","legs":"X"},"bonus":1.7600000000000013},{"rt":1730,"stimulus":"bees-with-color/bee-A2SM.svg","response":0,"trial_type":"image-button-response","trial_index":138,"time_elapsed":287736,"internal_node_id":"0.0-6.0-0.2","subject_id":"6167299d96c225c0dad1475c","study_id":"60edd13110225f80f9f3709b","session_id":"6196c4a2df81e93b5fdd6484","condition":"contingent","relevant_dimensions":["antennae","wings"],"bee_group":{"antennae":"A","wings":"1","pattern":"X","legs":"X"},"bonus":1.7600000000000013},{"rt":1382.5999999940395,"stimulus":"bees-with-color/bee-A1SM.svg","response":1,"trial_type":"image-button-response","trial_index":139,"time_elapsed":289120,"internal_node_id":"0.0-6.0-0.3","subject_id":"6167299d96c225c0dad1475c","study_id":"60edd13110225f80f9f3709b","session_id":"6196c4a2df81e93b5fdd6484","condition":"contingent","relevant_dimensions":["antennae","wings"],"bee_group":{"antennae":"A","wings":"1","pattern":"X","legs":"X"},"bonus":1.7600000000000013},{"rt":2455.8000000044703,"stimulus":"bees-with-color/bee-B2DM.svg","response":0,"trial_type":"image-button-response","trial_index":140,"time_elapsed":291577,"internal_node_id":"0.0-6.0-0.4","subject_id":"6167299d96c225c0dad1475c","study_id":"60edd13110225f80f9f3709b","session_id":"6196c4a2df81e93b5fdd6484","condition":"contingent","relevant_dimensions":["antennae","wings"],"bee_group":{"antennae":"A","wings":"1","pattern":"X","legs":"X"},"bonus":1.7600000000000013},{"rt":840.8999999985099,"stimulus":"bees-with-color/bee-A2DF.svg","response":0,"trial_type":"image-button-response","trial_index":141,"time_elapsed":292419,"internal_node_id":"0.0-6.0-0.5","subject_id":"6167299d96c225c0dad1475c","study_id":"60edd13110225f80f9f3709b","session_id":"6196c4a2df81e93b5fdd6484","condition":"contingent","relevant_dimensions":["antennae","wings"],"bee_group":{"antennae":"A","wings":"1","pattern":"X","legs":"X"},"bonus":1.7600000000000013},{"rt":937,"stimulus":"bees-with-color/bee-B2DF.svg","response":0,"trial_type":"image-button-response","trial_index":142,"time_elapsed":293357,"internal_node_id":"0.0-6.0-0.6","subject_id":"6167299d96c225c0dad1475c","study_id":"60edd13110225f80f9f3709b","session_id":"6196c4a2df81e93b5fdd6484","condition":"contingent","relevant_dimensions":["antennae","wings"],"bee_group":{"antennae":"A","wings":"1","pattern":"X","legs":"X"},"bonus":1.7600000000000013},{"rt":976.8000000044703,"stimulus":"bees-with-color/bee-A2DM.svg","response":0,"trial_type":"image-button-response","trial_index":143,"time_elapsed":294335,"internal_node_id":"0.0-6.0-0.7","subject_id":"6167299d96c225c0dad1475c","study_id":"60edd13110225f80f9f3709b","session_id":"6196c4a2df81e93b5fdd6484","condition":"contingent","relevant_dimensions":["antennae","wings"],"bee_group":{"antennae":"A","wings":"1","pattern":"X","legs":"X"},"bonus":1.7600000000000013},{"rt":872.1000000014901,"stimulus":"bees-with-color/bee-B2SF.svg","response":0,"trial_type":"image-button-response","trial_index":144,"time_elapsed":295208,"internal_node_id":"0.0-6.0-0.8","subject_id":"6167299d96c225c0dad1475c","study_id":"60edd13110225f80f9f3709b","session_id":"6196c4a2df81e93b5fdd6484","condition":"contingent","relevant_dimensions":["antennae","wings"],"bee_group":{"antennae":"A","wings":"1","pattern":"X","legs":"X"},"bonus":1.7600000000000013},{"rt":877.7999999970198,"stimulus":"bees-with-color/bee-A1SF.svg","response":1,"trial_type":"image-button-response","trial_index":145,"time_elapsed":296087,"internal_node_id":"0.0-6.0-0.9","subject_id":"6167299d96c225c0dad1475c","study_id":"60edd13110225f80f9f3709b","session_id":"6196c4a2df81e93b5fdd6484","condition":"contingent","relevant_dimensions":["antennae","wings"],"bee_group":{"antennae":"A","wings":"1","pattern":"X","legs":"X"},"bonus":1.7600000000000013},{"rt":804.8000000044703,"stimulus":"bees-with-color/bee-B1SF.svg","response":0,"trial_type":"image-button-response","trial_index":146,"time_elapsed":296893,"internal_node_id":"0.0-6.0-0.10","subject_id":"6167299d96c225c0dad1475c","study_id":"60edd13110225f80f9f3709b","session_id":"6196c4a2df81e93b5fdd6484","condition":"contingent","relevant_dimensions":["antennae","wings"],"bee_group":{"antennae":"A","wings":"1","pattern":"X","legs":"X"},"bonus":1.7600000000000013},{"rt":849.6000000014901,"stimulus":"bees-with-color/bee-A1DF.svg","response":1,"trial_type":"image-button-response","trial_index":147,"time_elapsed":297744,"internal_node_id":"0.0-6.0-0.11","subject_id":"6167299d96c225c0dad1475c","study_id":"60edd13110225f80f9f3709b","session_id":"6196c4a2df81e93b5fdd6484","condition":"contingent","relevant_dimensions":["antennae","wings"],"bee_group":{"antennae":"A","wings":"1","pattern":"X","legs":"X"},"bonus":1.7600000000000013},{"rt":766.6000000014901,"stimulus":"bees-with-color/bee-B2SM.svg","response":0,"trial_type":"image-button-response","trial_index":148,"time_elapsed":298512,"internal_node_id":"0.0-6.0-0.12","subject_id":"6167299d96c225c0dad1475c","study_id":"60edd13110225f80f9f3709b","session_id":"6196c4a2df81e93b5fdd6484","condition":"contingent","relevant_dimensions":["antennae","wings"],"bee_group":{"antennae":"A","wings":"1","pattern":"X","legs":"X"},"bonus":1.7600000000000013},{"rt":970,"stimulus":"bees-with-color/bee-B1DM.svg","response":0,"trial_type":"image-button-response","trial_index":149,"time_elapsed":299483,"internal_node_id":"0.0-6.0-0.13","subject_id":"6167299d96c225c0dad1475c","study_id":"60edd13110225f80f9f3709b","session_id":"6196c4a2df81e93b5fdd6484","condition":"contingent","relevant_dimensions":["antennae","wings"],"bee_group":{"antennae":"A","wings":"1","pattern":"X","legs":"X"},"bonus":1.7600000000000013},{"rt":1523.8999999985099,"stimulus":"bees-with-color/bee-A2SF.svg","response":0,"trial_type":"image-button-response","trial_index":150,"time_elapsed":301008,"internal_node_id":"0.0-6.0-0.14","subject_id":"6167299d96c225c0dad1475c","study_id":"60edd13110225f80f9f3709b","session_id":"6196c4a2df81e93b5fdd6484","condition":"contingent","relevant_dimensions":["antennae","wings"],"bee_group":{"antennae":"A","wings":"1","pattern":"X","legs":"X"},"bonus":1.7600000000000013},{"rt":2179.89999999851,"stimulus":"bees-with-color/bee-B1DF.svg","response":0,"trial_type":"image-button-response","trial_index":151,"time_elapsed":303189,"internal_node_id":"0.0-6.0-0.15","subject_id":"6167299d96c225c0dad1475c","study_id":"60edd13110225f80f9f3709b","session_id":"6196c4a2df81e93b5fdd6484","condition":"contingent","relevant_dimensions":["antennae","wings"],"bee_group":{"antennae":"A","wings":"1","pattern":"X","legs":"X"},"bonus":1.7600000000000013},{"rt":763,"stimulus":"bees-with-color/bee-B2DM.svg","response":0,"trial_type":"image-button-response","trial_index":152,"time_elapsed":303953,"internal_node_id":"0.0-6.0-0.16","subject_id":"6167299d96c225c0dad1475c","study_id":"60edd13110225f80f9f3709b","session_id":"6196c4a2df81e93b5fdd6484","condition":"contingent","relevant_dimensions":["antennae","wings"],"bee_group":{"antennae":"A","wings":"1","pattern":"X","legs":"X"},"bonus":1.7600000000000013},{"rt":854,"stimulus":"bees-with-color/bee-B1DM.svg","response":0,"trial_type":"image-button-response","trial_index":153,"time_elapsed":304808,"internal_node_id":"0.0-6.0-0.17","subject_id":"6167299d96c225c0dad1475c","study_id":"60edd13110225f80f9f3709b","session_id":"6196c4a2df81e93b5fdd6484","condition":"contingent","relevant_dimensions":["antennae","wings"],"bee_group":{"antennae":"A","wings":"1","pattern":"X","legs":"X"},"bonus":1.7600000000000013},{"rt":844.2000000029802,"stimulus":"bees-with-color/bee-A2SM.svg","response":0,"trial_type":"image-button-response","trial_index":154,"time_elapsed":305653,"internal_node_id":"0.0-6.0-0.18","subject_id":"6167299d96c225c0dad1475c","study_id":"60edd13110225f80f9f3709b","session_id":"6196c4a2df81e93b5fdd6484","condition":"contingent","relevant_dimensions":["antennae","wings"],"bee_group":{"antennae":"A","wings":"1","pattern":"X","legs":"X"},"bonus":1.7600000000000013},{"rt":990,"stimulus":"bees-with-color/bee-B1DF.svg","response":0,"trial_type":"image-button-response","trial_index":155,"time_elapsed":306644,"internal_node_id":"0.0-6.0-0.19","subject_id":"6167299d96c225c0dad1475c","study_id":"60edd13110225f80f9f3709b","session_id":"6196c4a2df81e93b5fdd6484","condition":"contingent","relevant_dimensions":["antennae","wings"],"bee_group":{"antennae":"A","wings":"1","pattern":"X","legs":"X"},"bonus":1.7600000000000013},{"rt":1134.1000000014901,"stimulus":"bees-with-color/bee-A1DM.svg","response":1,"trial_type":"image-button-response","trial_index":156,"time_elapsed":307779,"internal_node_id":"0.0-6.0-0.20","subject_id":"6167299d96c225c0dad1475c","study_id":"60edd13110225f80f9f3709b","session_id":"6196c4a2df81e93b5fdd6484","condition":"contingent","relevant_dimensions":["antennae","wings"],"bee_group":{"antennae":"A","wings":"1","pattern":"X","legs":"X"},"bonus":1.7600000000000013},{"rt":1275.1000000014901,"stimulus":"bees-with-color/bee-A1DF.svg","response":1,"trial_type":"image-button-response","trial_index":157,"time_elapsed":309055,"internal_node_id":"0.0-6.0-0.21","subject_id":"6167299d96c225c0dad1475c","study_id":"60edd13110225f80f9f3709b","session_id":"6196c4a2df81e93b5fdd6484","condition":"contingent","relevant_dimensions":["antennae","wings"],"bee_group":{"antennae":"A","wings":"1","pattern":"X","legs":"X"},"bonus":1.7600000000000013},{"rt":886.8999999985099,"stimulus":"bees-with-color/bee-B1SM.svg","response":0,"trial_type":"image-button-response","trial_index":158,"time_elapsed":309943,"internal_node_id":"0.0-6.0-0.22","subject_id":"6167299d96c225c0dad1475c","study_id":"60edd13110225f80f9f3709b","session_id":"6196c4a2df81e93b5fdd6484","condition":"contingent","relevant_dimensions":["antennae","wings"],"bee_group":{"antennae":"A","wings":"1","pattern":"X","legs":"X"},"bonus":1.7600000000000013},{"rt":983.1000000014901,"stimulus":"bees-with-color/bee-A2DF.svg","response":0,"trial_type":"image-button-response","trial_index":159,"time_elapsed":310927,"internal_node_id":"0.0-6.0-0.23","subject_id":"6167299d96c225c0dad1475c","study_id":"60edd13110225f80f9f3709b","session_id":"6196c4a2df81e93b5fdd6484","condition":"contingent","relevant_dimensions":["antennae","wings"],"bee_group":{"antennae":"A","wings":"1","pattern":"X","legs":"X"},"bonus":1.7600000000000013},{"rt":817.6000000014901,"stimulus":"bees-with-color/bee-B2SF.svg","response":0,"trial_type":"image-button-response","trial_index":160,"time_elapsed":311745,"internal_node_id":"0.0-6.0-0.24","subject_id":"6167299d96c225c0dad1475c","study_id":"60edd13110225f80f9f3709b","session_id":"6196c4a2df81e93b5fdd6484","condition":"contingent","relevant_dimensions":["antennae","wings"],"bee_group":{"antennae":"A","wings":"1","pattern":"X","legs":"X"},"bonus":1.76