[{"success":true,"trial_type":"fullscreen","trial_index":0,"time_elapsed":14807,"internal_node_id":"0.0-0.0","subject_id":"6110372e5ac6859c2699531c","study_id":"6197b3f67c2b5cd3b6d9596a","session_id":"6197b9f3ccbc2f179f2038cb","condition":"contingent","relevant_dimensions":["wings","pattern"],"bee_group":{"antennae":"X","wings":"1","pattern":"S","legs":"X"},"bonus":1.5400000000000011},{"success":true,"timeout":false,"failed_images":[],"failed_audio":[],"failed_video":[],"trial_type":"preload","trial_index":1,"time_elapsed":16081,"internal_node_id":"0.0-1.0","subject_id":"6110372e5ac6859c2699531c","study_id":"6197b3f67c2b5cd3b6d9596a","session_id":"6197b9f3ccbc2f179f2038cb","condition":"contingent","relevant_dimensions":["wings","pattern"],"bee_group":{"antennae":"X","wings":"1","pattern":"S","legs":"X"},"bonus":1.5400000000000011},{"rt":23044.399999976158,"stimulus":"Welcome! Press any key to begin.","response":" ","trial_type":"html-keyboard-response","trial_index":2,"time_elapsed":39125,"internal_node_id":"0.0-2.0","subject_id":"6110372e5ac6859c2699531c","study_id":"6197b3f67c2b5cd3b6d9596a","session_id":"6197b9f3ccbc2f179f2038cb","condition":"contingent","relevant_dimensions":["wings","pattern"],"bee_group":{"antennae":"X","wings":"1","pattern":"S","legs":"X"},"bonus":1.5400000000000011},{"view_history":[{"page_index":0,"viewing_time":4095.7999999523163},{"page_index":1,"viewing_time":11430.200000047684},{"page_index":2,"viewing_time":4925.899999976158},{"page_index":3,"viewing_time":1732.1000000238419},{"page_index":2,"viewing_time":4897.899999976158},{"page_index":3,"viewing_time":10590.300000071526},{"page_index":4,"viewing_time":4396},{"page_index":5,"viewing_time":2749.6999999284744},{"page_index":6,"viewing_time":9020},{"page_index":7,"viewing_time":6798},{"page_index":8,"viewing_time":2463.899999976158},{"page_index":9,"viewing_time":2934.100000023842},{"page_index":10,"viewing_time":3203.8000000715256},{"page_index":11,"viewing_time":5582.399999976158},{"page_index":10,"viewing_time":769.6000000238419},{"page_index":9,"viewing_time":49904},{"page_index":8,"viewing_time":548},{"page_index":7,"viewing_time":460.1999999284744},{"page_index":6,"viewing_time":941.8999999761581},{"page_index":7,"viewing_time":2216.2000000476837},{"page_index":8,"viewing_time":1982},{"page_index":9,"viewing_time":1840},{"page_index":10,"viewing_time":1297.7000000476837},{"page_index":11,"viewing_time":1478.2999999523163},{"page_index":12,"viewing_time":3040},{"page_index":13,"viewing_time":1124},{"page_index":14,"viewing_time":1326.1000000238419}],"rt":141748.39999997616,"trial_type":"instructions","trial_index":3,"time_elapsed":180874,"internal_node_id":"0.0-3.0-0.0","subject_id":"6110372e5ac6859c2699531c","study_id":"6197b3f67c2b5cd3b6d9596a","session_id":"6197b9f3ccbc2f179f2038cb","condition":"contingent","relevant_dimensions":["wings","pattern"],"bee_group":{"antennae":"X","wings":"1","pattern":"S","legs":"X"},"bonus":1.5400000000000011},{"rt":10063.699999928474,"response":{"Q0":["Two or six legs","Stripes or spots on body","Single or double wings","Antennae or no antennae"]},"question_order":[0],"trial_type":"survey-multi-select","trial_index":4,"time_elapsed":190941,"internal_node_id":"0.0-3.0-1.0","subject_id":"6110372e5ac6859c2699531c","study_id":"6197b3f67c2b5cd3b6d9596a","session_id":"6197b9f3ccbc2f179f2038cb","condition":"contingent","relevant_dimensions":["wings","pattern"],"bee_group":{"antennae":"X","wings":"1","pattern":"S","legs":"X"},"correct":true,"bonus":1.5400000000000011},{"rt":14044.299999952316,"response":{"Q1":"Yes.","Q2":"Based on the four features of the bee.","Q3":"You do not learn if it was friendly or dangerous, and do not alter your bonus."},"question_order":[0,1,2],"trial_type":"survey-multi-choice","trial_index":5,"time_elapsed":204987,"internal_node_id":"0.0-3.0-2.0","subject_id":"6110372e5ac6859c2699531c","study_id":"6197b3f67c2b5cd3b6d9596a","session_id":"6197b9f3ccbc2f179f2038cb","condition":"contingent","relevant_dimensions":["wings","pattern"],"bee_group":{"antennae":"X","wings":"1","pattern":"S","legs":"X"},"correct":false,"bonus":1.5400000000000011},{"rt":2358.399999976158,"stimulus":"<p>You did not answer all comprehension questions correctly.<br>Press <b>continue</b> to review the instructions again.</p>","response":0,"trial_type":"html-button-response","trial_index":6,"time_elapsed":207347,"internal_node_id":"0.0-3.0-3.0","subject_id":"6110372e5ac6859c2699531c","study_id":"6197b3f67c2b5cd3b6d9596a","session_id":"6197b9f3ccbc2f179f2038cb","condition":"contingent","relevant_dimensions":["wings","pattern"],"bee_group":{"antennae":"X","wings":"1","pattern":"S","legs":"X"},"bonus":1.5400000000000011},{"view_history":[{"page_index":0,"viewing_time":788.5999999046326},{"page_index":1,"viewing_time":628.1000000238419},{"page_index":2,"viewing_time":615.8999999761581},{"page_index":3,"viewing_time":588.7000000476837},{"page_index":4,"viewing_time":495.5},{"page_index":5,"viewing_time":414.5},{"page_index":6,"viewing_time":415.10000002384186},{"page_index":7,"viewing_time":977.8999999761581},{"page_index":8,"viewing_time":138.20000004768372},{"page_index":9,"viewing_time":132.19999992847443},{"page_index":10,"viewing_time":318.2000000476837},{"page_index":11,"viewing_time":948},{"page_index":12,"viewing_time":847.7999999523163},{"page_index":13,"viewing_time":900.1000000238419},{"page_index":14,"viewing_time":425.89999997615814}],"rt":8635.099999904633,"trial_type":"instructions","trial_index":7,"time_elapsed":215982,"internal_node_id":"0.0-3.0-4.0-0.0","subject_id":"6110372e5ac6859c2699531c","study_id":"6197b3f67c2b5cd3b6d9596a","session_id":"6197b9f3ccbc2f179f2038cb","condition":"contingent","relevant_dimensions":["wings","pattern"],"bee_group":{"antennae":"X","wings":"1","pattern":"S","legs":"X"},"bonus":1.5400000000000011},{"rt":7001.100000023842,"response":{"Q0":["Two or six legs","Stripes or spots on body","Single or double wings","Antennae or no antennae"]},"question_order":[0],"trial_type":"survey-multi-select","trial_index":8,"time_elapsed":222987,"internal_node_id":"0.0-3.0-4.0-1.0","subject_id":"6110372e5ac6859c2699531c","study_id":"6197b3f67c2b5cd3b6d9596a","session_id":"6197b9f3ccbc2f179f2038cb","condition":"contingent","relevant_dimensions":["wings","pattern"],"bee_group":{"antennae":"X","wings":"1","pattern":"S","legs":"X"},"correct":true,"bonus":1.5400000000000011},{"rt":4600.900000095367,"response":{"Q1":"No.","Q2":"Based on the four features of the bee.","Q3":"You do not learn if it was friendly or dangerous, and do not alter your bonus."},"question_order":[0,1,2],"trial_type":"survey-multi-choice","trial_index":9,"time_elapsed":227588,"internal_node_id":"0.0-3.0-4.0-2.0","subject_id":"6110372e5ac6859c2699531c","study_id":"6197b3f67c2b5cd3b6d9596a","session_id":"6197b9f3ccbc2f179f2038cb","condition":"contingent","relevant_dimensions":["wings","pattern"],"bee_group":{"antennae":"X","wings":"1","pattern":"S","legs":"X"},"correct":true,"bonus":1.5400000000000011},{"rt":1186.6000000238419,"stimulus":"<p>Congrats, you got everything right<br>When you're ready, click the button below to continue to the experiment.</p>","response":0,"trial_type":"html-button-response","trial_index":10,"time_elapsed":228776,"internal_node_id":"0.0-3.0-4.0-3.0","subject_id":"6110372e5ac6859c2699531c","study_id":"6197b3f67c2b5cd3b6d9596a","session_id":"6197b9f3ccbc2f179f2038cb","condition":"contingent","relevant_dimensions":["wings","pattern"],"bee_group":{"antennae":"X","wings":"1","pattern":"S","legs":"X"},"bonus":1.5400000000000011},{"rt":7352.099999904633,"stimulus":"bees-with-color/bee-B1DF.svg","response":0,"trial_type":"image-button-response","trial_index":11,"time_elapsed":236130,"internal_node_id":"0.0-4.0-0.0","subject_id":"6110372e5ac6859c2699531c","study_id":"6197b3f67c2b5cd3b6d9596a","session_id":"6197b9f3ccbc2f179f2038cb","condition":"contingent","relevant_dimensions":["wings","pattern"],"bee_group":{"antennae":"X","wings":"1","pattern":"S","legs":"X"},"action":"harvest","summary":"good-harvest","bonus":1.5400000000000011},{"rt":4144.5,"stimulus":"\n                    <p><b>Action: <em>harvest</em></b></p>\n                    <p>This is the bee that you just saw.</p>\n                    <img src=\"bees-with-color/bee-B1DF.svg\" width=\"200\">\n                    <p><span class=\"greenText\"><b>Successful harvest!</b></span><br>Your pay has increased by $0.02. Your bonus pay is now $0.56.</p>\n            ","response":0,"trial_type":"html-button-response","trial_index":12,"time_elapsed":240276,"internal_node_id":"0.0-4.0-1.0","subject_id":"6110372e5ac6859c2699531c","study_id":"6197b3f67c2b5cd3b6d9596a","session_id":"6197b9f3ccbc2f179f2038cb","condition":"contingent","relevant_dimensions":["wings","pattern"],"bee_group":{"antennae":"X","wings":"1","pattern":"S","legs":"X"},"bonus":1.5400000000000011},{"rt":2164.4000000953674,"stimulus":"bees-with-color/bee-A2SF.svg","response":1,"trial_type":"image-button-response","trial_index":13,"time_elapsed":242442,"internal_node_id":"0.0-4.0-0.1","subject_id":"6110372e5ac6859c2699531c","study_id":"6197b3f67c2b5cd3b6d9596a","session_id":"6197b9f3ccbc2f179f2038cb","condition":"contingent","relevant_dimensions":["wings","pattern"],"bee_group":{"antennae":"X","wings":"1","pattern":"S","legs":"X"},"action":"avoid","summary":"bad-avoid","bonus":1.5400000000000011},{"rt":2159,"stimulus":"\n                    <p><b>Action: <em>avoid</em></b></p>\n                    <p>This is the bee that you just saw.</p>\n                    <img src=\"bees-with-color/bee-A2SF.svg\" width=\"200\">\n                    <p><br>Your bonus pay is unchanged, and remains at $0.56.</p>\n            ","response":0,"trial_type":"html-button-response","trial_index":14,"time_elapsed":244602,"internal_node_id":"0.0-4.0-1.1","subject_id":"6110372e5ac6859c2699531c","study_id":"6197b3f67c2b5cd3b6d9596a","session_id":"6197b9f3ccbc2f179f2038cb","condition":"contingent","relevant_dimensions":["wings","pattern"],"bee_group":{"antennae":"X","wings":"1","pattern":"S","legs":"X"},"bonus":1.5400000000000011},{"rt":1416.6000000238419,"stimulus":"bees-with-color/bee-B2SF.svg","response":0,"trial_type":"image-button-response","trial_index":15,"time_elapsed":246020,"internal_node_id":"0.0-4.0-0.2","subject_id":"6110372e5ac6859c2699531c","study_id":"6197b3f67c2b5cd3b6d9596a","session_id":"6197b9f3ccbc2f179f2038cb","condition":"contingent","relevant_dimensions":["wings","pattern"],"bee_group":{"antennae":"X","wings":"1","pattern":"S","legs":"X"},"action":"harvest","summary":"good-harvest","bonus":1.5400000000000011},{"rt":3708.7999999523163,"stimulus":"\n                    <p><b>Action: <em>harvest</em></b></p>\n                    <p>This is the bee that you just saw.</p>\n                    <img src=\"bees-with-color/bee-B2SF.svg\" width=\"200\">\n                    <p><span class=\"greenText\"><b>Successful harvest!</b></span><br>Your pay has increased by $0.02. Your bonus pay is now $0.58.</p>\n            ","response":0,"trial_type":"html-button-response","trial_index":16,"time_elapsed":249730,"internal_node_id":"0.0-4.0-1.2","subject_id":"6110372e5ac6859c2699531c","study_id":"6197b3f67c2b5cd3b6d9596a","session_id":"6197b9f3ccbc2f179f2038cb","condition":"contingent","relevant_dimensions":["wings","pattern"],"bee_group":{"antennae":"X","wings":"1","pattern":"S","legs":"X"},"bonus":1.5400000000000011},{"rt":3582.7999999523163,"stimulus":"bees-with-color/bee-A1DF.svg","response":0,"trial_type":"image-button-response","trial_index":17,"time_elapsed":253314,"internal_node_id":"0.0-4.0-0.3","subject_id":"6110372e5ac6859c2699531c","study_id":"6197b3f67c2b5cd3b6d9596a","session_id":"6197b9f3ccbc2f179f2038cb","condition":"contingent","relevant_dimensions":["wings","pattern"],"bee_group":{"antennae":"X","wings":"1","pattern":"S","legs":"X"},"action":"harvest","summary":"good-harvest","bonus":1.5400000000000011},{"rt":980.7999999523163,"stimulus":"\n                    <p><b>Action: <em>harvest</em></b></p>\n                    <p>This is the bee that you just saw.</p>\n                    <img src=\"bees-with-color/bee-A1DF.svg\" width=\"200\">\n                    <p><span class=\"greenText\"><b>Successful harvest!</b></span><br>Your pay has increased by $0.02. Your bonus pay is now $0.60.</p>\n            ","response":0,"trial_type":"html-button-response","trial_index":18,"time_elapsed":254296,"internal_node_id":"0.0-4.0-1.3","subject_id":"6110372e5ac6859c2699531c","study_id":"6197b3f67c2b5cd3b6d9596a","session_id":"6197b9f3ccbc2f179f2038cb","condition":"contingent","relevant_dimensions":["wings","pattern"],"bee_group":{"antennae":"X","wings":"1","pattern":"S","legs":"X"},"bonus":1.5400000000000011},{"rt":2343,"stimulus":"bees-with-color/bee-B2SM.svg","response":1,"trial_type":"image-button-response","trial_index":19,"time_elapsed":256640,"internal_node_id":"0.0-4.0-0.4","subject_id":"6110372e5ac6859c2699531c","study_id":"6197b3f67c2b5cd3b6d9596a","session_id":"6197b9f3ccbc2f179f2038cb","condition":"contingent","relevant_dimensions":["wings","pattern"],"bee_group":{"antennae":"X","wings":"1","pattern":"S","legs":"X"},"action":"avoid","summary":"bad-avoid","bonus":1.5400000000000011},{"rt":546.5,"stimulus":"\n                    <p><b>Action: <em>avoid</em></b></p>\n                    <p>This is the bee that you just saw.</p>\n                    <img src=\"bees-with-color/bee-B2SM.svg\" width=\"200\">\n                    <p><br>Your bonus pay is unchanged, and remains at $0.60.</p>\n            ","response":0,"trial_type":"html-button-response","trial_index":20,"time_elapsed":257188,"internal_node_id":"0.0-4.0-1.4","subject_id":"6110372e5ac6859c2699531c","study_id":"6197b3f67c2b5cd3b6d9596a","session_id":"6197b9f3ccbc2f179f2038cb","condition":"contingent","relevant_dimensions":["wings","pattern"],"bee_group":{"antennae":"X","wings":"1","pattern":"S","legs":"X"},"bonus":1.5400000000000011},{"rt":1908.7999999523163,"stimulus":"bees-with-color/bee-A2DM.svg","response":0,"trial_type":"image-button-response","trial_index":21,"time_elapsed":259098,"internal_node_id":"0.0-4.0-0.5","subject_id":"6110372e5ac6859c2699531c","study_id":"6197b3f67c2b5cd3b6d9596a","session_id":"6197b9f3ccbc2f179f2038cb","condition":"contingent","relevant_dimensions":["wings","pattern"],"bee_group":{"antennae":"X","wings":"1","pattern":"S","legs":"X"},"action":"harvest","summary":"good-harvest","bonus":1.5400000000000011},{"rt":639,"stimulus":"\n                    <p><b>Action: <em>harvest</em></b></p>\n                    <p>This is the bee that you just saw.</p>\n                    <img src=\"bees-with-color/bee-A2DM.svg\" width=\"200\">\n                    <p><span class=\"greenText\"><b>Successful harvest!</b></span><br>Your pay has increased by $0.02. Your bonus pay is now $0.62.</p>\n            ","response":0,"trial_type":"html-button-response","trial_index":22,"time_elapsed":259738,"internal_node_id":"0.0-4.0-1.5","subject_id":"6110372e5ac6859c2699531c","study_id":"6197b3f67c2b5cd3b6d9596a","session_id":"6197b9f3ccbc2f179f2038cb","condition":"contingent","relevant_dimensions":["wings","pattern"],"bee_group":{"antennae":"X","wings":"1","pattern":"S","legs":"X"},"bonus":1.5400000000000011},{"rt":3576.7999999523163,"stimulus":"bees-with-color/bee-B1SM.svg","response":0,"trial_type":"image-button-response","trial_index":23,"time_elapsed":263316,"internal_node_id":"0.0-4.0-0.6","subject_id":"6110372e5ac6859c2699531c","study_id":"6197b3f67c2b5cd3b6d9596a","session_id":"6197b9f3ccbc2f179f2038cb","condition":"contingent","relevant_dimensions":["wings","pattern"],"bee_group":{"antennae":"X","wings":"1","pattern":"S","legs":"X"},"action":"harvest","summary":"bad-harvest","bonus":1.5400000000000011},{"rt":2846.6999999284744,"stimulus":"\n                    <p><b>Action: <em>harvest</em></b></p>\n                    <p>This is the bee that you just saw.</p>\n                    <img src=\"bees-with-color/bee-B1SM.svg\" width=\"200\">\n                    <p><span class=\"redText\">Bad choice, the bee was angry.</span><br><b>You have been stung!</b><br>Your pay has been decreased by $0.10. Your bonus pay is now $0.52.</p>\n            ","response":0,"trial_type":"html-button-response","trial_index":24,"time_elapsed":266164,"internal_node_id":"0.0-4.0-1.6","subject_id":"6110372e5ac6859c2699531c","study_id":"6197b3f67c2b5cd3b6d9596a","session_id":"6197b9f3ccbc2f179f2038cb","condition":"contingent","relevant_dimensions":["wings","pattern"],"bee_group":{"antennae":"X","wings":"1","pattern":"S","legs":"X"},"bonus":1.5400000000000011},{"rt":1355.3999999761581,"stimulus":"bees-with-color/bee-A1SF.svg","response":0,"trial_type":"image-button-response","trial_index":25,"time_elapsed":267521,"internal_node_id":"0.0-4.0-0.7","subject_id":"6110372e5ac6859c2699531c","study_id":"6197b3f67c2b5cd3b6d9596a","session_id":"6197b9f3ccbc2f179f2038cb","condition":"contingent","relevant_dimensions":["wings","pattern"],"bee_group":{"antennae":"X","wings":"1","pattern":"S","legs":"X"},"action":"harvest","summary":"bad-harvest","bonus":1.5400000000000011},{"rt":751.8999999761581,"stimulus":"\n                    <p><b>Action: <em>harvest</em></b></p>\n                    <p>This is the bee that you just saw.</p>\n                    <img src=\"bees-with-color/bee-A1SF.svg\" width=\"200\">\n                    <p><span class=\"redText\">Bad choice, the bee was angry.</span><br><b>You have been stung!</b><br>Your pay has been decreased by $0.10. Your bonus pay is now $0.42.</p>\n            ","response":0,"trial_type":"html-button-response","trial_index":26,"time_elapsed":268274,"internal_node_id":"0.0-4.0-1.7","subject_id":"6110372e5ac6859c2699531c","study_id":"6197b3f67c2b5cd3b6d9596a","session_id":"6197b9f3ccbc2f179f2038cb","condition":"contingent","relevant_dimensions":["wings","pattern"],"bee_group":{"antennae":"X","wings":"1","pattern":"S","legs":"X"},"bonus":1.5400000000000011},{"rt":990.3999999761581,"stimulus":"bees-with-color/bee-B2DM.svg","response":0,"trial_type":"image-button-response","trial_index":27,"time_elapsed":269266,"internal_node_id":"0.0-4.0-0.8","subject_id":"6110372e5ac6859c2699531c","study_id":"6197b3f67c2b5cd3b6d9596a","session_id":"6197b9f3ccbc2f179f2038cb","condition":"contingent","relevant_dimensions":["wings","pattern"],"bee_group":{"antennae":"X","wings":"1","pattern":"S","legs":"X"},"action":"harvest","summary":"good-harvest","bonus":1.5400000000000011},{"rt":726.8999999761581,"stimulus":"\n                    <p><b>Action: <em>harvest</em></b></p>\n                    <p>This is the bee that you just saw.</p>\n                    <img src=\"bees-with-color/bee-B2DM.svg\" width=\"200\">\n                    <p><span class=\"greenText\"><b>Successful harvest!</b></span><br>Your pay has increased by $0.02. Your bonus pay is now $0.44.</p>\n            ","response":0,"trial_type":"html-button-response","trial_index":28,"time_elapsed":269994,"internal_node_id":"0.0-4.0-1.8","subject_id":"6110372e5ac6859c2699531c","study_id":"6197b3f67c2b5cd3b6d9596a","session_id":"6197b9f3ccbc2f179f2038cb","condition":"contingent","relevant_dimensions":["wings","pattern"],"bee_group":{"antennae":"X","wings":"1","pattern":"S","legs":"X"},"bonus":1.5400000000000011},{"rt":1470.8999999761581,"stimulus":"bees-with-color/bee-A1SM.svg","response":1,"trial_type":"image-button-response","trial_index":29,"time_elapsed":271466,"internal_node_id":"0.0-4.0-0.9","subject_id":"6110372e5ac6859c2699531c","study_id":"6197b3f67c2b5cd3b6d9596a","session_id":"6197b9f3ccbc2f179f2038cb","condition":"contingent","relevant_dimensions":["wings","pattern"],"bee_group":{"antennae":"X","wings":"1","pattern":"S","legs":"X"},"action":"avoid","summary":"good-avoid","bonus":1.5400000000000011},{"rt":996.7999999523163,"stimulus":"\n                    <p><b>Action: <em>avoid</em></b></p>\n                    <p>This is the bee that you just saw.</p>\n                    <img src=\"bees-with-color/bee-A1SM.svg\" width=\"200\">\n                    <p><br>Your bonus pay is unchanged, and remains at $0.44.</p>\n            ","response":0,"trial_type":"html-button-response","trial_index":30,"time_elapsed":272464,"internal_node_id":"0.0-4.0-1.9","subject_id":"6110372e5ac6859c2699531c","study_id":"6197b3f67c2b5cd3b6d9596a","session_id":"6197b9f3ccbc2f179f2038cb","condition":"contingent","relevant_dimensions":["wings","pattern"],"bee_group":{"antennae":"X","wings":"1","pattern":"S","legs":"X"},"bonus":1.5400000000000011},{"rt":738.2999999523163,"stimulus":"bees-with-color/bee-A2DF.svg","response":0,"trial_type":"image-button-response","trial_index":31,"time_elapsed":273204,"internal_node_id":"0.0-4.0-0.10","subject_id":"6110372e5ac6859c2699531c","study_id":"6197b3f67c2b5cd3b6d9596a","session_id":"6197b9f3ccbc2f179f2038cb","condition":"contingent","relevant_dimensions":["wings","pattern"],"bee_group":{"antennae":"X","wings":"1","pattern":"S","legs":"X"},"action":"harvest","summary":"good-harvest","bonus":1.5400000000000011},{"rt":705.2999999523163,"stimulus":"\n                    <p><b>Action: <em>harvest</em></b></p>\n                    <p>This is the bee that you just saw.</p>\n                    <img src=\"bees-with-color/bee-A2DF.svg\" width=\"200\">\n                    <p><span class=\"greenText\"><b>Successful harvest!</b></span><br>Your pay has increased by $0.02. Your bonus pay is now $0.46.</p>\n            ","response":0,"trial_type":"html-button-response","trial_index":32,"time_elapsed":273910,"internal_node_id":"0.0-4.0-1.10","subject_id":"6110372e5ac6859c2699531c","study_id":"6197b3f67c2b5cd3b6d9596a","session_id":"6197b9f3ccbc2f179f2038cb","condition":"contingent","relevant_dimensions":["wings","pattern"],"bee_group":{"antennae":"X","wings":"1","pattern":"S","legs":"X"},"bonus":1.5400000000000011},{"rt":1319,"stimulus":"bees-with-color/bee-A1DM.svg","response":0,"trial_type":"image-button-response","trial_index":33,"time_elapsed":275230,"internal_node_id":"0.0-4.0-0.11","subject_id":"6110372e5ac6859c2699531c","study_id":"6197b3f67c2b5cd3b6d9596a","session_id":"6197b9f3ccbc2f179f2038cb","condition":"contingent","relevant_dimensions":["wings","pattern"],"bee_group":{"antennae":"X","wings":"1","pattern":"S","legs":"X"},"action":"harvest","summary":"good-harvest","bonus":1.5400000000000011},{"rt":486.5,"stimulus":"\n                    <p><b>Action: <em>harvest</em></b></p>\n                    <p>This is the bee that you just saw.</p>\n                    <img src=\"bees-with-color/bee-A1DM.svg\" width=\"200\">\n                    <p><span class=\"greenText\"><b>Successful harvest!</b></span><br>Your pay has increased by $0.02. Your bonus pay is now $0.48.</p>\n            ","response":0,"trial_type":"html-button-response","trial_index":34,"time_elapsed":275718,"internal_node_id":"0.0-4.0-1.11","subject_id":"6110372e5ac6859c2699531c","study_id":"6197b3f67c2b5cd3b6d9596a","session_id":"6197b9f3ccbc2f179f2038cb","condition":"contingent","relevant_dimensions":["wings","pattern"],"bee_group":{"antennae":"X","wings":"1","pattern":"S","legs":"X"},"bonus":1.5400000000000011},{"rt":2069.8000000715256,"stimulus":"bees-with-color/bee-B1DM.svg","response":0,"trial_type":"image-button-response","trial_index":35,"time_elapsed":277789,"internal_node_id":"0.0-4.0-0.12","subject_id":"6110372e5ac6859c2699531c","study_id":"6197b3f67c2b5cd3b6d9596a","session_id":"6197b9f3ccbc2f179f2038cb","condition":"contingent","relevant_dimensions":["wings","pattern"],"bee_group":{"antennae":"X","wings":"1","pattern":"S","legs":"X"},"action":"harvest","summary":"good-harvest","bonus":1.5400000000000011},{"rt":679.7999999523163,"stimulus":"\n                    <p><b>Action: <em>harvest</em></b></p>\n                    <p>This is the bee that you just saw.</p>\n                    <img src=\"bees-with-color/bee-B1DM.svg\" width=\"200\">\n                    <p><span class=\"greenText\"><b>Successful harvest!</b></span><br>Your pay has increased by $0.02. Your bonus pay is now $0.50.</p>\n            ","response":0,"trial_type":"html-button-response","trial_index":36,"time_elapsed":278470,"internal_node_id":"0.0-4.0-1.12","subject_id":"6110372e5ac6859c2699531c","study_id":"6197b3f67c2b5cd3b6d9596a","session_id":"6197b9f3ccbc2f179f2038cb","condition":"contingent","relevant_dimensions":["wings","pattern"],"bee_group":{"antennae":"X","wings":"1","pattern":"S","legs":"X"},"bonus":1.5400000000000011},{"rt":14936.5,"stimulus":"bees-with-color/bee-B1SF.svg","response":1,"trial_type":"image-button-response","trial_index":37,"time_elapsed":293408,"internal_node_id":"0.0-4.0-0.13","subject_id":"6110372e5ac6859c2699531c","study_id":"6197b3f67c2b5cd3b6d9596a","session_id":"6197b9f3ccbc2f179f2038cb","condition":"contingent","relevant_dimensions":["wings","pattern"],"bee_group":{"antennae":"X","wings":"1","pattern":"S","legs":"X"},"action":"avoid","summary":"good-avoid","bonus":1.5400000000000011},{"rt":1095.5,"stimulus":"\n                    <p><b>Action: <em>avoid</em></b></p>\n                    <p>This is the bee that you just saw.</p>\n                    <img src=\"bees-with-color/bee-B1SF.svg\" width=\"200\">\n                    <p><br>Your bonus pay is unchanged, and remains at $0.50.</p>\n            ","response":0,"trial_type":"html-button-response","trial_index":38,"time_elapsed":294504,"internal_node_id":"0.0-4.0-1.13","subject_id":"6110372e5ac6859c2699531c","study_id":"6197b3f67c2b5cd3b6d9596a","session_id":"6197b9f3ccbc2f179f2038cb","condition":"contingent","relevant_dimensions":["wings","pattern"],"bee_group":{"antennae":"X","wings":"1","pattern":"S","legs":"X"},"bonus":1.5400000000000011},{"rt":844.7999999523163,"stimulus":"bees-with-color/bee-A2SM.svg","response":0,"trial_type":"image-button-response","trial_index":39,"time_elapsed":295350,"internal_node_id":"0.0-4.0-0.14","subject_id":"6110372e5ac6859c2699531c","study_id":"6197b3f67c2b5cd3b6d9596a","session_id":"6197b9f3ccbc2f179f2038cb","condition":"contingent","relevant_dimensions":["wings","pattern"],"bee_group":{"antennae":"X","wings":"1","pattern":"S","legs":"X"},"action":"harvest","summary":"good-harvest","bonus":1.5400000000000011},{"rt":480.60000002384186,"stimulus":"\n                    <p><b>Action: <em>harvest</em></b></p>\n                    <p>This is the bee that you just saw.</p>\n                    <img src=\"bees-with-color/bee-A2SM.svg\" width=\"200\">\n                    <p><span class=\"greenText\"><b>Successful harvest!</b></span><br>Your pay has increased by $0.02. Your bonus pay is now $0.52.</p>\n            ","response":0,"trial_type":"html-button-response","trial_index":40,"time_elapsed":295832,"internal_node_id":"0.0-4.0-1.14","subject_id":"6110372e5ac6859c2699531c","study_id":"6197b3f67c2b5cd3b6d9596a","session_id":"6197b9f3ccbc2f179f2038cb","condition":"contingent","relevant_dimensions":["wings","pattern"],"bee_group":{"antennae":"X","wings":"1","pattern":"S","legs":"X"},"bonus":1.5400000000000011},{"rt":1004.2000000476837,"stimulus":"bees-with-color/bee-B2DF.svg","response":0,"trial_type":"image-button-response","trial_index":41,"time_elapsed":296837,"internal_node_id":"0.0-4.0-0.15","subject_id":"6110372e5ac6859c2699531c","study_id":"6197b3f67c2b5cd3b6d9596a","session_id":"6197b9f3ccbc2f179f2038cb","condition":"contingent","relevant_dimensions":["wings","pattern"],"bee_group":{"antennae":"X","wings":"1","pattern":"S","legs":"X"},"action":"harvest","summary":"good-harvest","bonus":1.5400000000000011},{"rt":412.2999999523163,"stimulus":"\n                    <p><b>Action: <em>harvest</em></b></p>\n                    <p>This is the bee that you just saw.</p>\n                    <img src=\"bees-with-color/bee-B2DF.svg\" width=\"200\">\n                    <p><span class=\"greenText\"><b>Successful harvest!</b></span><br>Your pay has increased by $0.02. Your bonus pay is now $0.54.</p>\n            ","response":0,"trial_type":"html-button-response","trial_index":42,"time_elapsed":297250,"internal_node_id":"0.0-4.0-1.15","subject_id":"6110372e5ac6859c2699531c","study_id":"6197b3f67c2b5cd3b6d9596a","session_id":"6197b9f3ccbc2f179f2038cb","condition":"contingent","relevant_dimensions":["wings","pattern"],"bee_group":{"antennae":"X","wings":"1","pattern":"S","legs":"X"},"bonus":1.5400000000000011},{"rt":498.89999997615814,"stimulus":"bees-with-color/bee-B2DF.svg","response":0,"trial_type":"image-button-response","trial_index":43,"time_elapsed":297750,"internal_node_id":"0.0-4.0-0.16","subject_id":"6110372e5ac6859c2699531c","study_id":"6197b3f67c2b5cd3b6d9596a","session_id":"6197b9f3ccbc2f179f2038cb","condition":"contingent","relevant_dimensions":["wings","pattern"],"bee_group":{"antennae":"X","wings":"1","pattern":"S","legs":"X"},"action":"harvest","summary":"good-harvest","bonus":1.5400000000000011},{"rt":435.39999997615814,"stimulus":"\n                    <p><b>Action: <em>harvest</em></b></p>\n                    <p>This is the bee that you just saw.</p>\n                    <img src=\"bees-with-color/bee-B2DF.svg\" width=\"200\">\n                    <p><span class=\"greenText\"><b>Successful harvest!</b></span><br>Your pay has increased by $0.02. Your bonus pay is now $0.56.</p>\n            ","response":0,"trial_type":"html-button-response","trial_index":44,"time_elapsed":298186,"internal_node_id":"0.0-4.0-1.16","subject_id":"6110372e5ac6859c2699531c","study_id":"6197b3f67c2b5cd3b6d9596a","session_id":"6197b9f3ccbc2f179f2038cb","condition":"contingent","relevant_dimensions":["wings","pattern"],"bee_group":{"antennae":"X","wings":"1","pattern":"S","legs":"X"},"bonus":1.5400000000000011},{"rt":1127.1000000238419,"stimulus":"bees-with-color/bee-A2SM.svg","response":0,"trial_type":"image-button-response","trial_index":45,"time_elapsed":299314,"internal_node_id":"0.0-4.0-0.17","subject_id":"6110372e5ac6859c2699531c","study_id":"6197b3f67c2b5cd3b6d9596a","session_id":"6197b9f3ccbc2f179f2038cb","condition":"contingent","relevant_dimensions":["wings","pattern"],"bee_group":{"antennae":"X","wings":"1","pattern":"S","legs":"X"},"action":"harvest","summary":"good-harvest","bonus":1.5400000000000011},{"rt":464.7000000476837,"stimulus":"\n                    <p><b>Action: <em>harvest</em></b></p>\n                    <p>This is the bee that you just saw.</p>\n                    <img src=\"bees-with-color/bee-A2SM.svg\" width=\"200\">\n                    <p><span class=\"greenText\"><b>Successful harvest!</b></span><br>Your pay has increased by $0.02. Your bonus pay is now $0.58.</p>\n            ","response":0,"trial_type":"html-button-response","trial_index":46,"time_elapsed":299780,"internal_node_id":"0.0-4.0-1.17","subject_id":"6110372e5ac6859c2699531c","study_id":"6197b3f67c2b5cd3b6d9596a","session_id":"6197b9f3ccbc2f179f2038cb","condition":"contingent","relevant_dimensions":["wings","pattern"],"bee_group":{"antennae":"X","wings":"1","pattern":"S","legs":"X"},"bonus":1.5400000000000011},{"rt":391,"stimulus":"bees-with-color/bee-A2DM.svg","response":0,"trial_type":"image-button-response","trial_index":47,"time_elapsed":300172,"internal_node_id":"0.0-4.0-0.18","subject_id":"6110372e5ac6859c2699531c","study_id":"6197b3f67c2b5cd3b6d9596a","session_id":"6197b9f3ccbc2f179f2038cb","condition":"contingent","relevant_dimensions":["wings","pattern"],"bee_group":{"antennae":"X","wings":"1","pattern":"S","legs":"X"},"action":"harvest","summary":"good-harvest","bonus":1.5400000000000011},{"rt":497.39999997615814,"stimulus":"\n                    <p><b>Action: <em>harvest</em></b></p>\n                    <p>This is the bee that you just saw.</p>\n                    <img src=\"bees-with-color/bee-A2DM.svg\" width=\"200\">\n                    <p><span class=\"greenText\"><b>Successful harvest!</b></span><br>Your pay has increased by $0.02. Your bonus pay is now $0.60.</p>\n            ","response":0,"trial_type":"html-button-response","trial_index":48,"time_elapsed":300670,"internal_node_id":"0.0-4.0-1.18","subject_id":"6110372e5ac6859c2699531c","study_id":"6197b3f67c2b5cd3b6d9596a","session_id":"6197b9f3ccbc2f179f2038cb","condition":"contingent","relevant_dimensions":["wings","pattern"],"bee_group":{"antennae":"X","wings":"1","pattern":"S","legs":"X"},"bonus":1.5400000000000011},{"rt":2271.100000023842,"stimulus":"bees-with-color/bee-B1SM.svg","response":0,"trial_type":"image-button-response","trial_index":49,"time_elapsed":302942,"internal_node_id":"0.0-4.0-0.19","subject_id":"6110372e5ac6859c2699531c","study_id":"6197b3f67c2b5cd3b6d9596a","session_id":"6197b9f3ccbc2f179f2038cb","condition":"contingent","relevant_dimensions":["wings","pattern"],"bee_group":{"antennae":"X","wings":"1","pattern":"S","legs":"X"},"action":"harvest","summary":"bad-harvest","bonus":1.5400000000000011},{"rt":9508.700000047684,"stimulus":"\n                    <p><b>Action: <em>harvest</em></b></p>\n                    <p>This is the bee that you just saw.</p>\n                    <img src=\"bees-with-color/bee-B1SM.svg\" width=\"200\">\n                    <p><span class=\"redText\">Bad choice, the bee was angry.</span><br><b>You have been stung!</b><br>Your pay has been decreased by $0.10. Your bonus pay is now $0.50.</p>\n            ","response":0,"trial_type":"html-button-response","trial_index":50,"time_elapsed":312452,"internal_node_id":"0.0-4.0-1.19","subject_id":"6110372e5ac6859c2699531c","study_id":"6197b3f67c2b5cd3b6d9596a","session_id":"6197b9f3ccbc2f179f2038cb","condition":"contingent","relevant_dimensions":["wings","pattern"],"bee_group":{"antennae":"X","wings":"1","pattern":"S","legs":"X"},"bonus":1.5400000000000011},{"rt":1557.0999999046326,"stimulus":"bees-with-color/bee-A1DM.svg","response":0,"trial_type":"image-button-response","trial_index":51,"time_elapsed":314010,"internal_node_id":"0.0-4.0-0.20","subject_id":"6110372e5ac6859c2699531c","study_id":"6197b3f67c2b5cd3b6d9596a","session_id":"6197b9f3ccbc2f179f2038cb","condition":"contingent","relevant_dimensions":["wings","pattern"],"bee_group":{"antennae":"X","wings":"1","pattern":"S","legs":"X"},"action":"harvest","summary":"good-harvest","bonus":1.5400000000000011},{"rt":555.1000000238419,"stimulus":"\n                    <p><b>Action: <em>harvest</em></b></p>\n                    <p>This is the bee that you just saw.</p>\n                    <img src=\"bees-with-color/bee-A1DM.svg\" width=\"200\">\n                    <p><span class=\"greenText\"><b>Successful harvest!</b></span><br>Your pay has increased by $0.02. Your bonus pay is now $0.52.</p>\n            ","response":0,"trial_type":"html-button-response","trial_index":52,"time_elapsed":314566,"internal_node_id":"0.0-4.0-1.20","subject_id":"6110372e5ac6859c2699531c","study_id":"6197b3f67c2b5cd3b6d9596a","session_id":"6197b9f3ccbc2f179f2038cb","condition":"contingent","relevant_dimensions":["wings","pattern"],"bee_group":{"antennae":"X","wings":"1","pattern":"S","legs":"X"},"bonus":1.5400000000000011},{"rt":634.7000000476837,"stimulus":"bees-with-color/bee-A2SF.svg","response":0,"trial_type":"image-button-response","trial_index":53,"time_elapsed":315202,"internal_node_id":"0.0-4.0-0.21","subject_id":"6110372e5ac6859c2699531c","study_id":"6197b3f67c2b5cd3b6d9596a","session_id":"6197b9f3ccbc2f179f2038cb","condition":"contingent","relevant_dimensions":["wings","pattern"],"bee_group":{"antennae":"X","wings":"1","pattern":"S","legs":"X"},"action":"harvest","summary":"good-harvest","bonus":1.5400000000000011},{"rt":475.39999997615814,"stimulus":"\n                    <p><b>Action: <em>harvest</em></b></p>\n                    <p>This is the bee that you just saw.</p>\n                    <img src=\"bees-with-color/bee-A2SF.svg\" width=\"200\">\n                    <p><span class=\"greenText\"><b>Successful harvest!</b></span><br>Your pay has increased by $0.02. Your bonus pay is now $0.54.</p>\n            ","response":0,"trial_type":"html-button-response","trial_index":54,"time_elapsed":315678,"internal_node_id":"0.0-4.0-1.21","subject_id":"6110372e5ac6859c2699531c","study_id":"6197b3f67c2b5cd3b6d9596a","session_id":"6197b9f3ccbc2f179f2038cb","condition":"contingent","relevant_dimensions":["wings","pattern"],"bee_group":{"antennae":"X","wings":"1","pattern":"S","legs":"X"},"bonus":1.5400000000000011},{"rt":2184.7000000476837,"stimulus":"bees-with-color/bee-A1SM.svg","response":1,"trial_type":"image-button-response","trial_index":55,"time_elapsed":317864,"internal_node_id":"0.0-4.0-0.22","subject_id":"6110372e5ac6859c2699531c","study_id":"6197b3f67c2b5cd3b6d9596a","session_id":"6197b9f3ccbc2f179f2038cb","condition":"contingent","relevant_dimensions":["wings","pattern"],"bee_group":{"antennae":"X","wings":"1","pattern":"S","legs":"X"},"action":"avoid","summary":"good-avoid","bonus":1.5400000000000011},{"rt":629.1999999284744,"stimulus":"\n                    <p><b>Action: <em>avoid</em></b></p>\n                    <p>This is the bee that you just saw.</p>\n                    <img src=\"bees-with-color/bee-A1SM.svg\" width=\"200\">\n                    <p><br>Your bonus pay is unchanged, and remains at $0.54.</p>\n            ","response":0,"trial_type":"html-button-response","trial_index":56,"time_elapsed":318494,"internal_node_id":"0.0-4.0-1.22","subject_id":"6110372e5ac6859c2699531c","study_id":"6197b3f67c2b5cd3b6d9596a","session_id":"6197b9f3ccbc2f179f2038cb","condition":"contingent","relevant_dimensions":["wings","pattern"],"bee_group":{"antennae":"X","wings":"1","pattern":"S","legs":"X"},"bonus":1.5400000000000011},{"rt":3284.5999999046326,"stimulus":"bees-with-color/bee-A1DF.svg","response":0,"trial_type":"image-button-response","trial_index":57,"time_elapsed":321780,"internal_node_id":"0.0-4.0-0.23","subject_id":"6110372e5ac6859c2699531c","study_id":"6197b3f67c2b5cd3b6d9596a","session_id":"6197b9f3ccbc2f179f2038cb","condition":"contingent","relevant_dimensions":["wings","pattern"],"bee_group":{"antennae":"X","wings":"1","pattern":"S","legs":"X"},"action":"harvest","summary":"good-harvest","bonus":1.5400000000000011},{"rt":562.7000000476837,"stimulus":"\n                    <p><b>Action: <em>harvest</em></b></p>\n                    <p>This is the bee that you just saw.</p>\n                    <img src=\"bees-with-color/bee-A1DF.svg\" width=\"200\">\n                    <p><span class=\"greenText\"><b>Successful harvest!</b></span><br>Your pay has increased by $0.02. Your bonus pay is now $0.56.</p>\n            ","response":0,"trial_type":"html-button-response","trial_index":58,"time_elapsed":322344,"internal_node_id":"0.0-4.0-1.23","subject_id":"6110372e5ac6859c2699531c","study_id":"6197b3f67c2b5cd3b6d9596a","session_id":"6197b9f3ccbc2f179f2038cb","condition":"contingent","relevant_dimensions":["wings","pattern"],"bee_group":{"antennae":"X","wings":"1","pattern":"S","legs":"X"},"bonus":1.5400000000000011},{"rt":1313.6000000238419,"stimulus":"bees-with-color/bee-B2SF.svg","response":0,"trial_type":"image-button-response","trial_index":59,"time_elapsed":323659,"internal_node_id":"0.0-4.0-0.24","subject_id":"6110372e5ac6859c2699531c","study_id":"6197b3f67c2b5cd3b6d9596a","session_id":"6197b9f3ccbc2f179f2038cb","condition":"contingent","relevant_dimensions":["wings","pattern"],"bee_group":{"antennae":"X","wings":"1","pattern":"S","legs":"X"},"action":"harvest","summary":"good-harvest","bonus":1.5400000000000011},{"rt":432.5,"stimulus":"\n                    <p><b>Action: <em>harvest</em></b></p>\n                    <p>This is the bee that you just saw.</p>\n                    <img src=\"bees-with-color/bee-B2SF.svg\" width=\"200\">\n                    <p><span class=\"greenText\"><b>Successful harvest!</b></span><br>Your pay has increased by $0.02. Your bonus pay is now $0.58.</p>\n            ","response":0,"trial_type":"html-button-response","trial_index":60,"time_elapsed":324092,"internal_node_id":"0.0-4.0-1.24","subject_id":"6110372e5ac6859c2699531c","study_id":"6197b3f67c2b5cd3b6d9596a","session_id":"6197b9f3ccbc2f179f2038cb","condition":"contingent","relevant_dimensions":["wings","pattern"],"bee_group":{"antennae":"X","wings":"1","pattern":"S","legs":"X"},"bonus":1.5400000000000011},{"rt":3161,"stimulus":"bees-with-color/bee-B1DM.svg","response":0,"trial_type":"image-button-response","trial_index":61,"time_elapsed":327254,"internal_node_id":"0.0-4.0-0.25","subject_id":"6110372e5ac6859c2699531c","study_id":"6197b3f67c2b5cd3b6d9596a","session_id":"6197b9f3ccbc2f179f2038cb","condition":"contingent","relevant_dimensions":["wings","pattern"],"bee_group":{"antennae":"X","wings":"1","pattern":"S","legs":"X"},"action":"harvest","summary":"good-harvest","bonus":1.5400000000000011},{"rt":522.8999999761581,"stimulus":"\n                    <p><b>Action: <em>harvest</em></b></p>\n                    <p>This is the bee that you just saw.</p>\n                    <img src=\"bees-with-color/bee-B1DM.svg\" width=\"200\">\n                    <p><span class=\"greenText\"><b>Successful harvest!</b></span><br>Your pay has increased by $0.02. Your bonus pay is now $0.60.</p>\n            ","response":0,"trial_type":"html-button-response","trial_index":62,"time_elapsed":327778,"internal_node_id":"0.0-4.0-1.25","subject_id":"6110372e5ac6859c2699531c","study_id":"6197b3f67c2b5cd3b6d9596a","session_id":"6197b9f3ccbc2f179f2038cb","condition":"contingent","relevant_dimensions":["wings","pattern"],"bee_group":{"antennae":"X","wings":"1","pattern":"S","legs":"X"},"bonus":1.5400000000000011},{"rt":606.6000000238419,"stimulus":"bees-with-color/bee-B1DF.svg","response":0,"trial_type":"image-button-response","trial_index":63,"time_elapsed":328386,"internal_node_id":"0.0-4.0-0.26","subject_id":"6110372e5ac6859c2699531c","study_id":"6197b3f67c2b5cd3b6d9596a","session_id":"6197b9f3ccbc2f179f2038cb","condition":"contingent","relevant_dimensions":["wings","pattern"],"bee_group":{"antennae":"X","wings":"1","pattern":"S","legs":"X"},"action":"harvest","summary":"good-harvest","bonus":1.5400000000000011},{"rt":618.7999999523163,"stimulus":"\n                    <p><b>Action: <em>harvest</em></b></p>\n                    <p>This is the bee that you just saw.</p>\n                    <img src=\"bees-with-color/bee-B1DF.svg\" width=\"200\">\n                    <p><span class=\"greenText\"><b>Successful harvest!</b></span><br>Your pay has increased by $0.02. Your bonus pay is now $0.62.</p>\n            ","response":0,"trial_type":"html-button-response","trial_index":64,"time_elapsed":329006,"internal_node_id":"0.0-4.0-1.26","subject_id":"6110372e5ac6859c2699531c","study_id":"6197b3f67c2b5cd3b6d9596a","session_id":"6197b9f3ccbc2f179f2038cb","condition":"contingent","relevant_dimensions":["wings","pattern"],"bee_group":{"antennae":"X","wings":"1","pattern":"S","legs":"X"},"bonus":1.5400000000000011},{"rt":615.8999999761581,"stimulus":"bees-with-color/bee-A2DF.svg","response":0,"trial_type":"image-button-response","trial_index":65,"time_elapsed":329623,"internal_node_id":"0.0-4.0-0.27","subject_id":"6110372e5ac6859c2699531c","study_id":"6197b3f67c2b5cd3b6d9596a","session_id":"6197b9f3ccbc2f179f2038cb","condition":"contingent","relevant_dimensions":["wings","pattern"],"bee_group":{"antennae":"X","wings":"1","pattern":"S","legs":"X"},"action":"harvest","summary":"good-harvest","bonus":1.5400000000000011},{"rt":394.10000002384186,"stimulus":"\n                    <p><b>Action: <em>harvest</em></b></p>\n                    <p>This is the bee that you just saw.</p>\n                    <img src=\"bees-with-color/bee-A2DF.svg\" width=\"200\">\n                    <p><span class=\"greenText\"><b>Successful harvest!</b></span><br>Your pay has increased by $0.02. Your bonus pay is now $0.64.</p>\n            ","response":0,"trial_type":"html-button-response","trial_index":66,"time_elapsed":330018,"internal_node_id":"0.0-4.0-1.27","subject_id":"6110372e5ac6859c2699531c","study_id":"6197b3f67c2b5cd3b6d9596a","session_id":"6197b9f3ccbc2f179f2038cb","condition":"contingent","relevant_dimensions":["wings","pattern"],"bee_group":{"antennae":"X","wings":"1","pattern":"S","legs":"X"},"bonus":1.5400000000000011},{"rt":3693.5,"stimulus":"bees-with-color/bee-B1SF.svg","response":1,"trial_type":"image-button-response","trial_index":67,"time_elapsed":333712,"internal_node_id":"0.0-4.0-0.28","subject_id":"6110372e5ac6859c2699531c","study_id":"6197b3f67c2b5cd3b6d9596a","session_id":"6197b9f3ccbc2f179f2038cb","condition":"contingent","relevant_dimensions":["wings","pattern"],"bee_group":{"antennae":"X","wings":"1","pattern":"S","legs":"X"},"action":"avoid","summary":"good-avoid","bonus":1.5400000000000011},{"rt":812.8999999761581,"stimulus":"\n                    <p><b>Action: <em>avoid</em></b></p>\n                    <p>This is the bee that you just saw.</p>\n                    <img src=\"bees-with-color/bee-B1SF.svg\" width=\"200\">\n                    <p><br>Your bonus pay is unchanged, and remains at $0.64.</p>\n            ","response":0,"trial_type":"html-button-response","trial_index":68,"time_elapsed":334527,"internal_node_id":"0.0-4.0-1.28","subject_id":"6110372e5ac6859c2699531c","study_id":"6197b3f67c2b5cd3b6d9596a","session_id":"6197b9f3ccbc2f179f2038cb","condition":"contingent","relevant_dimensions":["wings","pattern"],"bee_group":{"antennae":"X","wings":"1","pattern":"S","legs":"X"},"bonus":1.5400000000000011},{"rt":3538.100000023842,"stimulus":"bees-with-color/bee-A1SF.svg","response":1,"trial_type":"image-button-response","trial_index":69,"time_elapsed":338066,"internal_node_id":"0.0-4.0-0.29","subject_id":"6110372e5ac6859c2699531c","study_id":"6197b3f67c2b5cd3b6d9596a","session_id":"6197b9f3ccbc2f179f2038cb","condition":"contingent","relevant_dimensions":["wings","pattern"],"bee_group":{"antennae":"X","wings":"1","pattern":"S","legs":"X"},"action":"avoid","summary":"good-avoid","bonus":1.5400000000000011},{"rt":796.3999999761581,"stimulus":"\n                    <p><b>Action: <em>avoid</em></b></p>\n                    <p>This is the bee that you just saw.</p>\n                    <img src=\"bees-with-color/bee-A1SF.svg\" width=\"200\">\n                    <p><br>Your bonus pay is unchanged, and remains at $0.64.</p>\n            ","response":0,"trial_type":"html-button-response","trial_index":70,"time_elapsed":338864,"internal_node_id":"0.0-4.0-1.29","subject_id":"6110372e5ac6859c2699531c","study_id":"6197b3f67c2b5cd3b6d9596a","session_id":"6197b9f3ccbc2f179f2038cb","condition":"contingent","relevant_dimensions":["wings","pattern"],"bee_group":{"antennae":"X","wings":"1","pattern":"S","legs":"X"},"bonus":1.5400000000000011},{"rt":1134.6999999284744,"stimulus":"bees-with-color/bee-B2DM.svg","response":0,"trial_type":"image-button-response","trial_index":71,"time_elapsed":340000,"internal_node_id":"0.0-4.0-0.30","subject_id":"6110372e5ac6859c2699531c","study_id":"6197b3f67c2b5cd3b6d9596a","session_id":"6197b9f3ccbc2f179f2038cb","condition":"contingent","relevant_dimensions":["wings","pattern"],"bee_group":{"antennae":"X","wings":"1","pattern":"S","legs":"X"},"action":"harvest","summary":"good-harvest","bonus":1.5400000000000011},{"rt":496.7999999523163,"stimulus":"\n                    <p><b>Action: <em>harvest</em></b></p>\n                    <p>This is the bee that you just saw.</p>\n                    <img src=\"bees-with-color/bee-B2DM.svg\" width=\"200\">\n                    <p><span class=\"greenText\"><b>Successful harvest!</b></span><br>Your pay has increased by $0.02. Your bonus pay is now $0.66.</p>\n            ","response":0,"trial_type":"html-button-response","trial_index":72,"time_elapsed":340498,"internal_node_id":"0.0-4.0-1.30","subject_id":"6110372e5ac6859c2699531c","study_id":"6197b3f67c2b5cd3b6d9596a","session_id":"6197b9f3ccbc2f179f2038cb","condition":"contingent","relevant_dimensions":["wings","pattern"],"bee_group":{"antennae":"X","wings":"1","pattern":"S","legs":"X"},"bonus":1.5400000000000011},{"rt":887,"stimulus":"bees-with-color/bee-B2SM.svg","response":0,"trial_type":"image-button-response","trial_index":73,"time_elapsed":341387,"internal_node_id":"0.0-4.0-0.31","subject_id":"6110372e5ac6859c2699531c","study_id":"6197b3f67c2b5cd3b6d9596a","session_id":"6197b9f3ccbc2f179f2038cb","condition":"contingent","relevant_dimensions":["wings","pattern"],"bee_group":{"antennae":"X","wings":"1","pattern":"S","legs":"X"},"action":"harvest","summary":"good-harvest","bonus":1.5400000000000011},{"rt":404.89999997615814,"stimulus":"\n                    <p><b>Action: <em>harvest</em></b></p>\n                    <p>This is the bee that you just saw.</p>\n                    <img src=\"bees-with-color/bee-B2SM.svg\" width=\"200\">\n                    <p><span class=\"greenText\"><b>Successful harvest!</b></span><br>Your pay has increased by $0.02. Your bonus pay is now $0.68.</p>\n            ","response":0,"trial_type":"html-button-response","trial_index":74,"time_elapsed":341793,"internal_node_id":"0.0-4.0-1.31","subject_id":"6110372e5ac6859c2699531c","study_id":"6197b3f67c2b5cd3b6d9596a","session_id":"6197b9f3ccbc2f179f2038cb","condition":"contingent","relevant_dimensions":["wings","pattern"],"bee_group":{"antennae":"X","wings":"1","pattern":"S","legs":"X"},"bonus":1.5400000000000011},{"rt":450.7999999523163,"stimulus":"bees-with-color/bee-A2SF.svg","response":0,"trial_type":"image-button-response","trial_index":75,"time_elapsed":342245,"internal_node_id":"0.0-4.0-0.32","subject_id":"6110372e5ac6859c2699531c","study_id":"6197b3f67c2b5cd3b6d9596a","session_id":"6197b9f3ccbc2f179f2038cb","condition":"contingent","relevant_dimensions":["wings","pattern"],"bee_group":{"antennae":"X","wings":"1","pattern":"S","legs":"X"},"action":"harvest","summary":"good-harvest","bonus":1.5400000000000011},{"rt":424.40000009536743,"stimulus":"\n                    <p><b>Action: <em>harvest</em></b></p>\n                    <p>This is the bee that you just saw.</p>\n                    <img src=\"bees-with-color/bee-A2SF.svg\" width=\"200\">\n                    <p><span class=\"greenText\"><b>Successful harvest!</b></span><br>Your pay has increased by $0.02. Your bonus pay is now $0.70.</p>\n            ","response":0,"trial_type":"html-button-response","trial_index":76,"time_elapsed":342670,"internal_node_id":"0.0-4.0-1.32","subject_id":"6110372e5ac6859c2699531c","study_id":"6197b3f67c2b5cd3b6d9596a","session_id":"6197b9f3ccbc2f179f2038cb","condition":"contingent","relevant_dimensions":["wings","pattern"],"bee_group":{"antennae":"X","wings":"1","pattern":"S","legs":"X"},"bonus":1.5400000000000011},{"rt":1091.2999999523163,"stimulus":"bees-with-color/bee-A1DM.svg","response":0,"trial_type":"image-button-response","trial_index":77,"time_elapsed":343762,"internal_node_id":"0.0-4.0-0.33","subject_id":"6110372e5ac6859c2699531c","study_id":"6197b3f67c2b5cd3b6d9596a","session_id":"6197b9f3ccbc2f179f2038cb","condition":"contingent","relevant_dimensions":["wings","pattern"],"bee_group":{"antennae":"X","wings":"1","pattern":"S","legs":"X"},"action":"harvest","summary":"good-harvest","bonus":1.5400000000000011},{"rt":460.7000000476837,"stimulus":"\n                    <p><b>Action: <em>harvest</em></b></p>\n                    <p>This is the bee that you just saw.</p>\n                    <img src=\"bees-with-color/bee-A1DM.svg\" width=\"200\">\n                    <p><span class=\"greenText\"><b>Successful harvest!</b></span><br>Your pay has increased by $0.02. Your bonus pay is now $0.72.</p>\n            ","response":0,"trial_type":"html-button-response","trial_index":78,"time_elapsed":344224,"internal_node_id":"0.0-4.0-1.33","subject_id":"6110372e5ac6859c2699531c","study_id":"6197b3f67c2b5cd3b6d9596a","session_id":"6197b9f3ccbc2f179f2038cb","condition":"contingent","relevant_dimensions":["wings","pattern"],"bee_group":{"antennae":"X","wings":"1","pattern":"S","legs":"X"},"bonus":1.5400000000000011},{"rt":3545.8000000715256,"stimulus":"bees-with-color/bee-B1SM.svg","response":1,"trial_type":"image-button-response","trial_index":79,"time_elapsed":347770,"internal_node_id":"0.0-4.0-0.34","subject_id":"6110372e5ac6859c2699531c","study_id":"6197b3f67c2b5cd3b6d9596a","session_id":"6197b9f3ccbc2f179f2038cb","condition":"contingent","relevant_dimensions":["wings","pattern"],"bee_group":{"antennae":"X","wings":"1","pattern":"S","legs":"X"},"action":"avoid","summary":"good-avoid","bonus":1.5400000000000011},{"rt":869.3999999761581,"stimulus":"\n                    <p><b>Action: <em>avoid</em></b></p>\n                    <p>This is the bee that you just saw.</p>\n                    <img src=\"bees-with-color/bee-B1SM.svg\" width=\"200\">\n                    <p><br>Your bonus pay is unchanged, and remains at $0.72.</p>\n            ","response":0,"trial_type":"html-button-response","trial_index":80,"time_elapsed":348641,"internal_node_id":"0.0-4.0-1.34","subject_id":"6110372e5ac6859c2699531c","study_id":"6197b3f67c2b5cd3b6d9596a","session_id":"6197b9f3ccbc2f179f2038cb","condition":"contingent","relevant_dimensions":["wings","pattern"],"bee_group":{"antennae":"X","wings":"1","pattern":"S","legs":"X"},"bonus":1.5400000000000011},{"rt":2966.2999999523163,"stimulus":"bees-with-color/bee-B1DF.svg","response":0,"trial_type":"image-button-response","trial_index":81,"time_elapsed":351608,"internal_node_id":"0.0-4.0-0.35","subject_id":"6110372e5ac6859c2699531c","study_id":"6197b3f67c2b5cd3b6d9596a","session_id":"6197b9f3ccbc2f179f2038cb","condition":"contingent","relevant_dimensions":["wings","pattern"],"bee_group":{"antennae":"X","wings":"1","pattern":"S","legs":"X"},"action":"harvest","summary":"good-harvest","bonus":1.5400000000000011},{"rt":784.6000000238419,"stimulus":"\n                    <p><b>Action: <em>harvest</em></b></p>\n                    <p>This is the bee that you just saw.</p>\n                    <img src=\"bees-with-color/bee-B1DF.svg\" width=\"200\">\n                    <p><span class=\"greenText\"><b>Successful harvest!</b></span><br>Your pay has increased by $0.02. Your bonus pay is now $0.74.</p>\n            ","response":0,"trial_type":"html-button-response","trial_index":82,"time_elapsed":352394,"internal_node_id":"0.0-4.0-1.35","subject_id":"6110372e5ac6859c2699531c","study_id":"6197b3f67c2b5cd3b6d9596a","session_id":"6197b9f3ccbc2f179f2038cb","condition":"contingent","relevant_dimensions":["wings","pattern"],"bee_group":{"antennae":"X","wings":"1","pattern":"S","legs":"X"},"bonus":1.5400000000000011},{"rt":3725.7000000476837,"stimulus":"bees-with-color/bee-A1SM.svg","response":1,"trial_type":"image-button-response","trial_index":83,"time_elapsed":356120,"internal_node_id":"0.0-4.0-0.36","subject_id":"6110372e5ac6859c2699531c","study_id":"6197b3f67c2b5cd3b6d9596a","session_id":"6197b9f3ccbc2f179f2038cb","condition":"contingent","relevant_dimensions":["wings","pattern"],"bee_group":{"antennae":"X","wings":"1","pattern":"S","legs":"X"},"action":"avoid","summary":"good-avoid","bonus":1.5400000000000011},{"rt":690.6000000238419,"stimulus":"\n                    <p><b>Action: <em>avoid</em></b></p>\n                    <p>This is the bee that you just saw.</p>\n                    <img src=\"bees-with-color/bee-A1SM.svg\" width=\"200\">\n                    <p><br>Your bonus pay is unchanged, and remains at $0.74.</p>\n            ","response":0,"trial_type":"html-button-response","trial_index":84,"time_elapsed":356812,"internal_node_id":"0.0-4.0-1.36","subject_id":"6110372e5ac6859c2699531c","study_id":"6197b3f67c2b5cd3b6d9596a","session_id":"6197b9f3ccbc2f179f2038cb","condition":"contingent","relevant_dimensions":["wings","pattern"],"bee_group":{"antennae":"X","wings":"1","pattern":"S","legs":"X"},"bonus":1.5400000000000011},{"rt":1193.1000000238419,"stimulus":"bees-with-color/bee-B1DM.svg","response":0,"trial_type":"image-button-response","trial_index":85,"time_elapsed":358006,"internal_node_id":"0.0-4.0-0.37","subject_id":"6110372e5ac6859c2699531c","study_id":"6197b3f67c2b5cd3b6d9596a","session_id":"6197b9f3ccbc2f179f2038cb","condition":"contingent","relevant_dimensions":["wings","pattern"],"bee_group":{"antennae":"X","wings":"1","pattern":"S","legs":"X"},"action":"harvest","summary":"good-harvest","bonus":1.5400000000000011},{"rt":524.8999999761581,"stimulus":"\n                    <p><b>Action: <em>harvest</em></b></p>\n                    <p>This is the bee that you just saw.</p>\n                    <img src=\"bees-with-color/bee-B1DM.svg\" width=\"200\">\n                    <p><span class=\"greenText\"><b>Successful harvest!</b></span><br>Your pay has increased by $0.02. Your bonus pay is now $0.76.</p>\n            ","response":0,"trial_type":"html-button-response","trial_index":86,"time_elapsed":358532,"internal_node_id":"0.0-4.0-1.37","subject_id":"6110372e5ac6859c2699531c","study_id":"6197b3f67c2b5cd3b6d9596a","session_id":"6197b9f3ccbc2f179f2038cb","condition":"contingent","relevant_dimensions":["wings","pattern"],"bee_group":{"antennae":"X","wings":"1","pattern":"S","legs":"X"},"bonus":1.5400000000000011},{"rt":559.1000000238419,"stimulus":"bees-with-color/bee-A2DF.svg","response":0,"trial_type":"image-button-response","trial_index":87,"time_elapsed":359092,"internal_node_id":"0.0-4.0-0.38","subject_id":"6110372e5ac6859c2699531c","study_id":"6197b3f67c2b5cd3b6d9596a","session_id":"6197b9f3ccbc2f179f2038cb","condition":"contingent","relevant_dimensions":["wings","pattern"],"bee_group":{"antennae":"X","wings":"1","pattern":"S","legs":"X"},"action":"harvest","summary":"good-harvest","bonus":1.5400000000000011},{"rt":435.2999999523163,"stimulus":"\n                    <p><b>Action: <em>harvest</em></b></p>\n                    <p>This is the bee that you just saw.</p>\n                    <img src=\"bees-with-color/bee-A2DF.svg\" width=\"200\">\n                    <p><span class=\"greenText\"><b>Successful harvest!</b></span><br>Your pay has increased by $0.02. Your bonus pay is now $0.78.</p>\n            ","response":0,"trial_type":"html-button-response","trial_index":88,"time_elapsed":359529,"internal_node_id":"0.0-4.0-1.38","subject_id":"6110372e5ac6859c2699531c","study_id":"6197b3f67c2b5cd3b6d9596a","session_id":"6197b9f3ccbc2f179f2038cb","condition":"contingent","relevant_dimensions":["wings","pattern"],"bee_group":{"antennae":"X","wings":"1","pattern":"S","legs":"X"},"bonus":1.5400000000000011},{"rt":1174.3999999761581,"stimulus":"bees-with-color/bee-A1DF.svg","response":0,"trial_type":"image-button-response","trial_index":89,"time_elapsed":360704,"internal_node_id":"0.0-4.0-0.39","subject_id":"6110372e5ac6859c2699531c","study_id":"6197b3f67c2b5cd3b6d9596a","session_id":"6197b9f3ccbc2f179f2038cb","condition":"contingent","relevant_dimensions":["wings","pattern"],"bee_group":{"antennae":"X","wings":"1","pattern":"S","legs":"X"},"action":"harvest","summary":"good-harvest","bonus":1.5400000000000011},{"rt":369.39999997615814,"stimulus":"\n                    <p><b>Action: <em>harvest</em></b></p>\n                    <p>This is the bee that you just saw.</p>\n                    <img src=\"bees-with-color/bee-A1DF.svg\" width=\"200\">\n                    <p><span class=\"greenText\"><b>Successful harvest!</b></span><br>Your pay has increased by $0.02. Your bonus pay is now $0.80.</p>\n            ","response":0,"trial_type":"html-button-response","trial_index":90,"time_elapsed":361074,"internal_node_id":"0.0-4.0-1.39","subject_id":"6110372e5ac6859c2699531c","study_id":"6197b3f67c2b5cd3b6d9596a","session_id":"6197b9f3ccbc2f179f2038cb","condition":"contingent","relevant_dimensions":["wings","pattern"],"bee_group":{"antennae":"X","wings":"1","pattern":"S","legs":"X"},"bonus":1.5400000000000011},{"rt":761.1000000238419,"stimulus":"bees-with-color/bee-B2DF.svg","response":0,"trial_type":"image-button-response","trial_index":91,"time_elapsed":361836,"internal_node_id":"0.0-4.0-0.40","subject_id":"6110372e5ac6859c2699531c","study_id":"6197b3f67c2b5cd3b6d9596a","session_id":"6197b9f3ccbc2f179f2038cb","condition":"contingent","relevant_dimensions":["wings","pattern"],"bee_group":{"antennae":"X","wings":"1","pattern":"S","legs":"X"},"action":"harvest","summary":"good-harvest","bonus":1.5400000000000011},{"rt":376.5,"stimulus":"\n                    <p><b>Action: <em>harvest</em></b></p>\n                    <p>This is the bee that you just saw.</p>\n                    <img src=\"bees-with-color/bee-B2DF.svg\" width=\"200\">\n                    <p><span class=\"greenText\"><b>Successful harvest!</b></span><br>Your pay has increased by $0.02. Your bonus pay is now $0.82.</p>\n            ","response":0,"trial_type":"html-button-response","trial_index":92,"time_elapsed":362214,"internal_node_id":"0.0-4.0-1.40","subject_id":"6110372e5ac6859c2699531c","study_id":"6197b3f67c2b5cd3b6d9596a","session_id":"6197b9f3ccbc2f179f2038cb","condition":"contingent","relevant_dimensions":["wings","pattern"],"bee_group":{"antennae":"X","wings":"1","pattern":"S","legs":"X"},"bonus":1.5400000000000011},{"rt":2597.5,"stimulus":"bees-with-color/bee-B1SF.svg","response":1,"trial_type":"image-button-response","trial_index":93,"time_elapsed":364812,"internal_node_id":"0.0-4.0-0.41","subject_id":"6110372e5ac6859c2699531c","study_id":"6197b3f67c2b5cd3b6d9596a","session_id":"6197b9f3ccbc2f179f2038cb","condition":"contingent","relevant_dimensions":["wings","pattern"],"bee_group":{"antennae":"X","wings":"1","pattern":"S","legs":"X"},"action":"avoid","summary":"good-avoid","bonus":1.5400000000000011},{"rt":510.5,"stimulus":"\n                    <p><b>Action: <em>avoid</em></b></p>\n                    <p>This is the bee that you just saw.</p>\n                    <img src=\"bees-with-color/bee-B1SF.svg\" width=\"200\">\n                    <p><br>Your bonus pay is unchanged, and remains at $0.82.</p>\n            ","response":0,"trial_type":"html-button-response","trial_index":94,"time_elapsed":365324,"internal_node_id":"0.0-4.0-1.41","subject_id":"6110372e5ac6859c2699531c","study_id":"6197b3f67c2b5cd3b6d9596a","session_id":"6197b9f3ccbc2f179f2038cb","condition":"contingent","relevant_dimensions":["wings","pattern"],"bee_group":{"antennae":"X","wings":"1","pattern":"S","legs":"X"},"bonus":1.5400000000000011},{"rt":1324.8999999761581,"stimulus":"bees-with-color/bee-A2SM.svg","response":0,"trial_type":"image-button-response","trial_index":95,"time_elapsed":366650,"internal_node_id":"0.0-4.0-0.42","subject_id":"6110372e5ac6859c2699531c","study_id":"6197b3f67c2b5cd3b6d9596a","session_id":"6197b9f3ccbc2f179f2038cb","condition":"contingent","relevant_dimensions":["wings","pattern"],"bee_group":{"antennae":"X","wings":"1","pattern":"S","legs":"X"},"action":"harvest","summary":"good-harvest","bonus":1.5400000000000011},{"rt":759.3999999761581,"stimulus":"\n                    <p><b>Action: <em>harvest</em></b></p>\n                    <p>This is the bee that you just saw.</p>\n                    <img src=\"bees-with-color/bee-A2SM.svg\" width=\"200\">\n                    <p><span class=\"greenText\"><b>Successful harvest!</b></span><br>Your pay has increased by $0.02. Your bonus pay is now $0.84.</p>\n            ","response":0,"trial_type":"html-button-response","trial_index":96,"time_elapsed":367410,"internal_node_id":"0.0-4.0-1.42","subject_id":"6110372e5ac6859c2699531c","study_id":"6197b3f67c2b5cd3b6d9596a","session_id":"6197b9f3ccbc2f179f2038cb","condition":"contingent","relevant_dimensions":["wings","pattern"],"bee_group":{"antennae":"X","wings":"1","pattern":"S","legs":"X"},"bonus":1.5400000000000011},{"rt":574.8999999761581,"stimulus":"bees-with-color/bee-A2DM.svg","response":0,"trial_type":"image-button-response","trial_index":97,"time_elapsed":367986,"internal_node_id":"0.0-4.0-0.43","subject_id":"6110372e5ac6859c2699531c","study_id":"6197b3f67c2b5cd3b6d9596a","session_id":"6197b9f3ccbc2f179f2038cb","condition":"contingent","relevant_dimensions":["wings","pattern"],"bee_group":{"antennae":"X","wings":"1","pattern":"S","legs":"X"},"action":"harvest","summary":"good-harvest","bonus":1.5400000000000011},{"rt":446.7999999523163,"stimulus":"\n                    <p><b>Action: <em>harvest</em></b></p>\n                    <p>This is the bee that you just saw.</p>\n                    <img src=\"bees-with-color/bee-A2DM.svg\" width=\"200\">\n                    <p><span class=\"greenText\"><b>Successful harvest!</b></span><br>Your pay has increased by $0.02. Your bonus pay is now $0.86.</p>\n            ","response":0,"trial_type":"html-button-response","trial_index":98,"time_elapsed":368434,"internal_node_id":"0.0-4.0-1.43","subject_id":"6110372e5ac6859c2699531c","study_id":"6197b3f67c2b5cd3b6d9596a","session_id":"6197b9f3ccbc2f179f2038cb","condition":"contingent","relevant_dimensions":["wings","pattern"],"bee_group":{"antennae":"X","wings":"1","pattern":"S","legs":"X"},"bonus":1.5400000000000011},{"rt":715.1000000238419,"stimulus":"bees-with-color/bee-B2SM.svg","response":0,"trial_type":"image-button-response","trial_index":99,"time_elapsed":369150,"internal_node_id":"0.0-4.0-0.44","subject_id":"6110372e5ac6859c2699531c","study_id":"6197b3f67c2b5cd3b6d9596a","session_id":"6197b9f3ccbc2f179f2038cb","condition":"contingent","relevant_dimensions":["wings","pattern"],"bee_group":{"antennae":"X","wings":"1","pattern":"S","legs":"X"},"action":"harvest","summary":"good-harvest","bonus":1.5400000000000011},{"rt":450.6999999284744,"stimulus":"\n                    <p><b>Action: <em>harvest</em></b></p>\n                    <p>This is the bee that you just saw.</p>\n                    <img src=\"bees-with-color/bee-B2SM.svg\" width=\"200\">\n                    <p><span class=\"greenText\"><b>Successful harvest!</b></span><br>Your pay has increased by $0.02. Your bonus pay is now $0.88.</p>\n            ","response":0,"trial_type":"html-button-response","trial_index":100,"time_elapsed":369602,"internal_node_id":"0.0-4.0-1.44","subject_id":"6110372e5ac6859c2699531c","study_id":"6197b3f67c2b5cd3b6d9596a","session_id":"6197b9f3ccbc2f179f2038cb","condition":"contingent","relevant_dimensions":["wings","pattern"],"bee_group":{"antennae":"X","wings":"1","pattern":"S","legs":"X"},"bonus":1.5400000000000011},{"rt":5686.800000071526,"stimulus":"bees-with-color/bee-A1SF.svg","response":1,"trial_type":"image-button-response","trial_index":101,"time_elapsed":375290,"internal_node_id":"0.0-4.0-0.45","subject_id":"6110372e5ac6859c2699531c","study_id":"6197b3f67c2b5cd3b6d9596a","session_id":"6197b9f3ccbc2f179f2038cb","condition":"contingent","relevant_dimensions":["wings","pattern"],"bee_group":{"antennae":"X","wings":"1","pattern":"S","legs":"X"},"action":"avoid","summary":"good-avoid","bonus":1.5400000000000011},{"rt":679.5,"stimulus":"\n                    <p><b>Action: <em>avoid</em></b></p>\n                    <p>This is the bee that you just saw.</p>\n                    <img src=\"bees-with-color/bee-A1SF.svg\" width=\"200\">\n                    <p><br>Your bonus pay is unchanged, and remains at $0.88.</p>\n            ","response":0,"trial_type":"html-button-response","trial_index":102,"time_elapsed":375971,"internal_node_id":"0.0-4.0-1.45","subject_id":"6110372e5ac6859c2699531c","study_id":"6197b3f67c2b5cd3b6d9596a","session_id":"6197b9f3ccbc2f179f2038cb","condition":"contingent","relevant_dimensions":["wings","pattern"],"bee_group":{"antennae":"X","wings":"1","pattern":"S","legs":"X"},"bonus":1.5400000000000011},{"rt":494.5,"stimulus":"bees-with-color/bee-B2DM.svg","response":0,"trial_type":"image-button-response","trial_index":103,"time_elapsed":376466,"internal_node_id":"0.0-4.0-0.46","subject_id":"6110372e5ac6859c2699531c","study_id":"6197b3f67c2b5cd3b6d9596a","session_id":"6197b9f3ccbc2f179f2038cb","condition":"contingent","relevant_dimensions":["wings","pattern"],"bee_group":{"antennae":"X","wings":"1","pattern":"S","legs":"X"},"action":"harvest","summary":"good-harvest","bonus":1.5400000000000011},{"rt":480.7999999523163,"stimulus":"\n                    <p><b>Action: <em>harvest</em></b></p>\n                    <p>This is the bee that you just saw.</p>\n                    <img src=\"bees-with-color/bee-B2DM.svg\" width=\"200\">\n                    <p><span class=\"greenText\"><b>Successful harvest!</b></span><br>Your pay has increased by $0.02. Your bonus pay is now $0.90.</p>\n            ","response":0,"trial_type":"html-button-response","trial_index":104,"time_elapsed":376948,"internal_node_id":"0.0-4.0-1.46","subject_id":"6110372e5ac6859c2699531c","study_id":"6197b3f67c2b5cd3b6d9596a","session_id":"6197b9f3ccbc2f179f2038cb","condition":"contingent","relevant_dimensions":["wings","pattern"],"bee_group":{"antennae":"X","wings":"1","pattern":"S","legs":"X"},"bonus":1.5400000000000011},{"rt":410.89999997615814,"stimulus":"bees-with-color/bee-B2SF.svg","response":0,"trial_type":"image-button-response","trial_index":105,"time_elapsed":377360,"internal_node_id":"0.0-4.0-0.47","subject_id":"6110372e5ac6859c2699531c","study_id":"6197b3f67c2b5cd3b6d9596a","session_id":"6197b9f3ccbc2f179f2038cb","condition":"contingent","relevant_dimensions":["wings","pattern"],"bee_group":{"antennae":"X","wings":"1","pattern":"S","legs":"X"},"action":"harvest","summary":"good-harvest","bonus":1.5400000000000011},{"rt":470.89999997615814,"stimulus":"\n                    <p><b>Action: <em>harvest</em></b></p>\n                    <p>This is the bee that you just saw.</p>\n                    <img src=\"bees-with-color/bee-B2SF.svg\" width=\"200\">\n                    <p><span class=\"greenText\"><b>Successful harvest!</b></span><br>Your pay has increased by $0.02. Your bonus pay is now $0.92.</p>\n            ","response":0,"trial_type":"html-button-response","trial_index":106,"time_elapsed":377832,"internal_node_id":"0.0-4.0-1.47","subject_id":"6110372e5ac6859c2699531c","study_id":"6197b3f67c2b5cd3b6d9596a","session_id":"6197b9f3ccbc2f179f2038cb","condition":"contingent","relevant_dimensions":["wings","pattern"],"bee_group":{"antennae":"X","wings":"1","pattern":"S","legs":"X"},"bonus":1.5400000000000011},{"rt":671,"stimulus":"bees-with-color/bee-B2DF.svg","response":0,"trial_type":"image-button-response","trial_index":107,"time_elapsed":378504,"internal_node_id":"0.0-4.0-0.48","subject_id":"6110372e5ac6859c2699531c","study_id":"6197b3f67c2b5cd3b6d9596a","session_id":"6197b9f3ccbc2f179f2038cb","condition":"contingent","relevant_dimensions":["wings","pattern"],"bee_group":{"antennae":"X","wings":"1","pattern":"S","legs":"X"},"action":"harvest","summary":"good-harvest","bonus":1.5400000000000011},{"rt":566.7999999523163,"stimulus":"\n                    <p><b>Action: <em>harvest</em></b></p>\n                    <p>This is the bee that you just saw.</p>\n                    <img src=\"bees-with-color/bee-B2DF.svg\" width=\"200\">\n                    <p><span class=\"greenText\"><b>Successful harvest!</b></span><br>Your pay has increased by $0.02. Your bonus pay is now $0.94.</p>\n            ","response":0,"trial_type":"html-button-response","trial_index":108,"time_elapsed":379072,"internal_node_id":"0.0-4.0-1.48","subject_id":"6110372e5ac6859c2699531c","study_id":"6197b3f67c2b5cd3b6d9596a","session_id":"6197b9f3ccbc2f179f2038cb","condition":"contingent","relevant_dimensions":["wings","pattern"],"bee_group":{"antennae":"X","wings":"1","pattern":"S","legs":"X"},"bonus":1.5400000000000011},{"rt":872.7999999523163,"stimulus":"bees-with-color/bee-A2SF.svg","response":0,"trial_type":"image-button-response","trial_index":109,"time_elapsed":379946,"internal_node_id":"0.0-4.0-0.49","subject_id":"6110372e5ac6859c2699531c","study_id":"6197b3f67c2b5cd3b6d9596a","session_id":"6197b9f3ccbc2f179f2038cb","condition":"contingent","relevant_dimensions":["wings","pattern"],"bee_group":{"antennae":"X","wings":"1","pattern":"S","legs":"X"},"action":"harvest","summary":"good-harvest","bonus":1.5400000000000011},{"rt":474.2999999523163,"stimulus":"\n                    <p><b>Action: <em>harvest</em></b></p>\n                    <p>This is the bee that you just saw.</p>\n                    <img src=\"bees-with-color/bee-A2SF.svg\" width=\"200\">\n                    <p><span class=\"greenText\"><b>Successful harvest!</b></span><br>Your pay has increased by $0.02. Your bonus pay is now $0.96.</p>\n            ","response":0,"trial_type":"html-button-response","trial_index":110,"time_elapsed":380422,"internal_node_id":"0.0-4.0-1.49","subject_id":"6110372e5ac6859c2699531c","study_id":"6197b3f67c2b5cd3b6d9596a","session_id":"6197b9f3ccbc2f179f2038cb","condition":"contingent","relevant_dimensions":["wings","pattern"],"bee_group":{"antennae":"X","wings":"1","pattern":"S","legs":"X"},"bonus":1.5400000000000011},{"rt":2487.5,"stimulus":"bees-with-color/bee-A1SF.svg","response":1,"trial_type":"image-button-response","trial_index":111,"time_elapsed":382910,"internal_node_id":"0.0-4.0-0.50","subject_id":"6110372e5ac6859c2699531c","study_id":"6197b3f67c2b5cd3b6d9596a","session_id":"6197b9f3ccbc2f179f2038cb","condition":"contingent","relevant_dimensions":["wings","pattern"],"bee_group":{"antennae":"X","wings":"1","pattern":"S","legs":"X"},"action":"avoid","summary":"good-avoid","bonus":1.5400000000000011},{"rt":502.59999990463257,"stimulus":"\n                    <p><b>Action: <em>avoid</em></b></p>\n                    <p>This is the bee that you just saw.</p>\n                    <img src=\"bees-with-color/bee-A1SF.svg\" width=\"200\">\n                    <p><br>Your bonus pay is unchanged, and remains at $0.96.</p>\n            ","response":0,"trial_type":"html-button-response","trial_index":112,"time_elapsed":383414,"internal_node_id":"0.0-4.0-1.50","subject_id":"6110372e5ac6859c2699531c","study_id":"6197b3f67c2b5cd3b6d9596a","session_id":"6197b9f3ccbc2f179f2038cb","condition":"contingent","relevant_dimensions":["wings","pattern"],"bee_group":{"antennae":"X","wings":"1","pattern":"S","legs":"X"},"bonus":1.5400000000000011},{"rt":562.7999999523163,"stimulus":"bees-with-color/bee-B2SM.svg","response":0,"trial_type":"image-button-response","trial_index":113,"time_elapsed":383978,"internal_node_id":"0.0-4.0-0.51","subject_id":"6110372e5ac6859c2699531c","study_id":"6197b3f67c2b5cd3b6d9596a","session_id":"6197b9f3ccbc2f179f2038cb","condition":"contingent","relevant_dimensions":["wings","pattern"],"bee_group":{"antennae":"X","wings":"1","pattern":"S","legs":"X"},"action":"harvest","summary":"good-harvest","bonus":1.5400000000000011},{"rt":455.10000002384186,"stimulus":"\n                    <p><b>Action: <em>harvest</em></b></p>\n                    <p>This is the bee that you just saw.</p>\n                    <img src=\"bees-with-color/bee-B2SM.svg\" width=\"200\">\n                    <p><span class=\"greenText\"><b>Successful harvest!</b></span><br>Your pay has increased by $0.02. Your bonus pay is now $0.98.</p>\n            ","response":0,"trial_type":"html-button-response","trial_index":114,"time_elapsed":384435,"internal_node_id":"0.0-4.0-1.51","subject_id":"6110372e5ac6859c2699531c","study_id":"6197b3f67c2b5cd3b6d9596a","session_id":"6197b9f3ccbc2f179f2038cb","condition":"contingent","relevant_dimensions":["wings","pattern"],"bee_group":{"antennae":"X","wings":"1","pattern":"S","legs":"X"},"bonus":1.5400000000000011},{"rt":900.6000000238419,"stimulus":"bees-with-color/bee-B1DF.svg","response":0,"trial_type":"image-button-response","trial_index":115,"time_elapsed":385336,"internal_node_id":"0.0-4.0-0.52","subject_id":"6110372e5ac6859c2699531c","study_id":"6197b3f67c2b5cd3b6d9596a","session_id":"6197b9f3ccbc2f179f2038cb","condition":"contingent","relevant_dimensions":["wings","pattern"],"bee_group":{"antennae":"X","wings":"1","pattern":"S","legs":"X"},"action":"harvest","summary":"good-harvest","bonus":1.5400000000000011},{"rt":413.2000000476837,"stimulus":"\n                    <p><b>Action: <em>harvest</em></b></p>\n                    <p>This is the bee that you just saw.</p>\n                    <img src=\"bees-with-color/bee-B1DF.svg\" width=\"200\">\n                    <p><span class=\"greenText\"><b>Successful harvest!</b></span><br>Your pay has increased by $0.02. Your bonus pay is now $1.00.</p>\n            ","response":0,"trial_type":"html-button-response","trial_index":116,"time_elapsed":385751,"internal_node_id":"0.0-4.0-1.52","subject_id":"6110372e5ac6859c2699531c","study_id":"6197b3f67c2b5cd3b6d9596a","session_id":"6197b9f3ccbc2f179f2038cb","condition":"contingent","relevant_dimensions":["wings","pattern"],"bee_group":{"antennae":"X","wings":"1","pattern":"S","legs":"X"},"bonus":1.5400000000000011},{"rt":467,"stimulus":"bees-with-color/bee-B1SF.svg","response":0,"trial_type":"image-button-response","trial_index":117,"time_elapsed":386219,"internal_node_id":"0.0-4.0-0.53","subject_id":"6110372e5ac6859c2699531c","study_id":"6197b3f67c2b5cd3b6d9596a","session_id":"6197b9f3ccbc2f179f2038cb","condition":"contingent","relevant_dimensions":["wings","pattern"],"bee_group":{"antennae":"X","wings":"1","pattern":"S","legs":"X"},"action":"harvest","summary":"bad-harvest","bonus":1.5400000000000011},{"rt":909,"stimulus":"\n                    <p><b>Action: <em>harvest</em></b></p>\n                    <p>This is the bee that you just saw.</p>\n                    <img src=\"bees-with-color/bee-B1SF.svg\" width=\"200\">\n                    <p><span class=\"redText\">Bad choice, the bee was angry.</span><br><b>You have been stung!</b><br>Your pay has been decreased by $0.10. Your bonus pay is now $0.90.</p>\n            ","response":0,"trial_type":"html-button-response","trial_index":118,"time_elapsed":387128,"internal_node_id":"0.0-4.0-1.53","subject_id":"6110372e5ac6859c2699531c","study_id":"6197b3f67c2b5cd3b6d9596a","session_id":"6197b9f3ccbc2f179f2038cb","condition":"contingent","relevant_dimensions":["wings","pattern"],"bee_group":{"antennae":"X","wings":"1","pattern":"S","legs":"X"},"bonus":1.5400000000000011},{"rt":941.5,"stimulus":"bees-with-color/bee-B1DM.svg","response":0,"trial_type":"image-button-response","trial_index":119,"time_elapsed":388071,"internal_node_id":"0.0-4.0-0.54","subject_id":"6110372e5ac6859c2699531c","study_id":"6197b3f67c2b5cd3b6d9596a","session_id":"6197b9f3ccbc2f179f2038cb","condition":"contingent","relevant_dimensions":["wings","pattern"],"bee_group":{"antennae":"X","wings":"1","pattern":"S","legs":"X"},"action":"harvest","summary":"good-harvest","bonus":1.5400000000000011},{"rt":434.2000000476837,"stimulus":"\n                    <p><b>Action: <em>harvest</em></b></p>\n                    <p>This is the bee that you just saw.</p>\n                    <img src=\"bees-with-color/bee-B1DM.svg\" width=\"200\">\n                    <p><span class=\"greenText\"><b>Successful harvest!</b></span><br>Your pay has increased by $0.02. Your bonus pay is now $0.92.</p>\n            ","response":0,"trial_type":"html-button-response","trial_index":120,"time_elapsed":388506,"internal_node_id":"0.0-4.0-1.54","subject_id":"6110372e5ac6859c2699531c","study_id":"6197b3f67c2b5cd3b6d9596a","session_id":"6197b9f3ccbc2f179f2038cb","condition":"contingent","relevant_dimensions":["wings","pattern"],"bee_group":{"antennae":"X","wings":"1","pattern":"S","legs":"X"},"bonus":1.5400000000000011},{"rt":998.2000000476837,"stimulus":"bees-with-color/bee-A2DM.svg","response":0,"trial_type":"image-button-response","trial_index":121,"time_elapsed":389505,"internal_node_id":"0.0-4.0-0.55","subject_id":"6110372e5ac6859c2699531c","study_id":"6197b3f67c2b5cd3b6d9596a","session_id":"6197b9f3ccbc2f179f2038cb","condition":"contingent","relevant_dimensions":["wings","pattern"],"bee_group":{"antennae":"X","wings":"1","pattern":"S","legs":"X"},"action":"harvest","summary":"good-harvest","bonus":1.5400000000000011},{"rt":494.89999997615814,"stimulus":"\n                    <p><b>Action: <em>harvest</em></b></p>\n                    <p>This is the bee that you just saw.</p>\n                    <img src=\"bees-with-color/bee-A2DM.svg\" width=\"200\">\n                    <p><span class=\"greenText\"><b>Successful harvest!</b></span><br>Your pay has increased by $0.02. Your bonus pay is now $0.94.</p>\n            ","response":0,"trial_type":"html-button-response","trial_index":122,"time_elapsed":390001,"internal_node_id":"0.0-4.0-1.55","subject_id":"6110372e5ac6859c2699531c","study_id":"6197b3f67c2b5cd3b6d9596a","session_id":"6197b9f3ccbc2f179f2038cb","condition":"contingent","relevant_dimensions":["wings","pattern"],"bee_group":{"antennae":"X","wings":"1","pattern":"S","legs":"X"},"bonus":1.5400000000000011},{"rt":3304.399999976158,"stimulus":"bees-with-color/bee-A2SM.svg","response":0,"trial_type":"image-button-response","trial_index":123,"time_elapsed":393306,"internal_node_id":"0.0-4.0-0.56","subject_id":"6110372e5ac6859c2699531c","study_id":"6197b3f67c2b5cd3b6d9596a","session_id":"6197b9f3ccbc2f179f2038cb","condition":"contingent","relevant_dimensions":["wings","pattern"],"bee_group":{"antennae":"X","wings":"1","pattern":"S","legs":"X"},"action":"harvest","summary":"good-harvest","bonus":1.5400000000000011},{"rt":387.60000002384186,"stimulus":"\n                    <p><b>Action: <em>harvest</em></b></p>\n                    <p>This is the bee that you just saw.</p>\n                    <img src=\"bees-with-color/bee-A2SM.svg\" width=\"200\">\n                    <p><span class=\"greenText\"><b>Successful harvest!</b></span><br>Your pay has increased by $0.02. Your bonus pay is now $0.96.</p>\n            ","response":0,"trial_type":"html-button-response","trial_index":124,"time_elapsed":393694,"internal_node_id":"0.0-4.0-1.56","subject_id":"6110372e5ac6859c2699531c","study_id":"6197b3f67c2b5cd3b6d9596a","session_id":"6197b9f3ccbc2f179f2038cb","condition":"contingent","relevant_dimensions":["wings","pattern"],"bee_group":{"antennae":"X","wings":"1","pattern":"S","legs":"X"},"bonus":1.5400000000000011},{"rt":614.8999999761581,"stimulus":"bees-with-color/bee-B2DM.svg","response":0,"trial_type":"image-button-response","trial_index":125,"time_elapsed":394310,"internal_node_id":"0.0-4.0-0.57","subject_id":"6110372e5ac6859c2699531c","study_id":"6197b3f67c2b5cd3b6d9596a","session_id":"6197b9f3ccbc2f179f2038cb","condition":"contingent","relevant_dimensions":["wings","pattern"],"bee_group":{"antennae":"X","wings":"1","pattern":"S","legs":"X"},"action":"harvest","summary":"good-harvest","bonus":1.5400000000000011},{"rt":507.39999997615814,"stimulus":"\n                    <p><b>Action: <em>harvest</em></b></p>\n                    <p>This is the bee that you just saw.</p>\n                    <img src=\"bees-with-color/bee-B2DM.svg\" width=\"200\">\n                    <p><span class=\"greenText\"><b>Successful harvest!</b></span><br>Your pay has increased by $0.02. Your bonus pay is now $0.98.</p>\n            ","response":0,"trial_type":"html-button-response","trial_index":126,"time_elapsed":394819,"internal_node_id":"0.0-4.0-1.57","subject_id":"6110372e5ac6859c2699531c","study_id":"6197b3f67c2b5cd3b6d9596a","session_id":"6197b9f3ccbc2f179f2038cb","condition":"contingent","relevant_dimensions":["wings","pattern"],"bee_group":{"antennae":"X","wings":"1","pattern":"S","legs":"X"},"bonus":1.5400000000000011},{"rt":1556.4000000953674,"stimulus":"bees-with-color/bee-B2SF.svg","response":0,"trial_type":"image-button-response","trial_index":127,"time_elapsed":396376,"internal_node_id":"0.0-4.0-0.58","subject_id":"6110372e5ac6859c2699531c","study_id":"6197b3f67c2b5cd3b6d9596a","session_id":"6197b9f3ccbc2f179f2038cb","condition":"contingent","relevant_dimensions":["wings","pattern"],"bee_group":{"antennae":"X","wings":"1","pattern":"S","legs":"X"},"action":"harvest","summary":"good-harvest","bonus":1.5400000000000011},{"rt":475.39999997615814,"stimulus":"\n                    <p><b>Action: <em>harvest</em></b></p>\n                    <p>This is the bee that you just saw.</p>\n                    <img src=\"bees-with-color/bee-B2SF.svg\" width=\"200\">\n                    <p><span class=\"greenText\"><b>Successful harvest!</b></span><br>Your pay has increased by $0.02. Your bonus pay is now $1.00.</p>\n            ","response":0,"trial_type":"html-button-response","trial_index":128,"time_elapsed":396852,"internal_node_id":"0.0-4.0-1.58","subject_id":"6110372e5ac6859c2699531c","study_id":"6197b3f67c2b5cd3b6d9596a","session_id":"6197b9f3ccbc2f179f2038cb","condition":"contingent","relevant_dimensions":["wings","pattern"],"bee_group":{"antennae":"X","wings":"1","pattern":"S","legs":"X"},"bonus":1.5400000000000011},{"rt":1310.8999999761581,"stimulus":"bees-with-color/bee-A1DF.svg","response":0,"trial_type":"image-button-response","trial_index":129,"time_elapsed":398164,"internal_node_id":"0.0-4.0-0.59","subject_id":"6110372e5ac6859c2699531c","study_id":"6197b3f67c2b5cd3b6d9596a","session_id":"6197b9f3ccbc2f179f2038cb","condition":"contingent","relevant_dimensions":["wings","pattern"],"bee_group":{"antennae":"X","wings":"1","pattern":"S","legs":"X"},"action":"harvest","summary":"good-harvest","bonus":1.5400000000000011},{"rt":482.89999997615814,"stimulus":"\n                    <p><b>Action: <em>harvest</em></b></p>\n                    <p>This is the bee that you just saw.</p>\n                    <img src=\"bees-with-color/bee-A1DF.svg\" width=\"200\">\n                    <p><span class=\"greenText\"><b>Successful harvest!</b></span><br>Your pay has increased by $0.02. Your bonus pay is now $1.02.</p>\n            ","response":0,"trial_type":"html-button-response","trial_index":130,"time_elapsed":398648,"internal_node_id":"0.0-4.0-1.59","subject_id":"6110372e5ac6859c2699531c","study_id":"6197b3f67c2b5cd3b6d9596a","session_id":"6197b9f3ccbc2f179f2038cb","condition":"contingent","relevant_dimensions":["wings","pattern"],"bee_group":{"antennae":"X","wings":"1","pattern":"S","legs":"X"},"bonus":1.5400000000000011},{"rt":753,"stimulus":"bees-with-color/bee-A1DM.svg","response":0,"trial_type":"image-button-response","trial_index":131,"time_elapsed":399402,"internal_node_id":"0.0-4.0-0.60","subject_id":"6110372e5ac6859c2699531c","study_id":"6197b3f67c2b5cd3b6d9596a","session_id":"6197b9f3ccbc2f179f2038cb","condition":"contingent","relevant_dimensions":["wings","pattern"],"bee_group":{"antennae":"X","wings":"1","pattern":"S","legs":"X"},"action":"harvest","summary":"good-harvest","bonus":1.5400000000000011},{"rt":465,"stimulus":"\n                    <p><b>Action: <em>harvest</em></b></p>\n                    <p>This is the bee that you just saw.</p>\n                    <img src=\"bees-with-color/bee-A1DM.svg\" width=\"200\">\n                    <p><span class=\"greenText\"><b>Successful harvest!</b></span><br>Your pay has increased by $0.02. Your bonus pay is now $1.04.</p>\n            ","response":0,"trial_type":"html-button-response","trial_index":132,"time_elapsed":399868,"internal_node_id":"0.0-4.0-1.60","subject_id":"6110372e5ac6859c2699531c","study_id":"6197b3f67c2b5cd3b6d9596a","session_id":"6197b9f3ccbc2f179f2038cb","condition":"contingent","relevant_dimensions":["wings","pattern"],"bee_group":{"antennae":"X","wings":"1","pattern":"S","legs":"X"},"bonus":1.5400000000000011},{"rt":566.8000000715256,"stimulus":"bees-with-color/bee-A2DF.svg","response":0,"trial_type":"image-button-response","trial_index":133,"time_elapsed":400436,"internal_node_id":"0.0-4.0-0.61","subject_id":"6110372e5ac6859c2699531c","study_id":"6197b3f67c2b5cd3b6d9596a","session_id":"6197b9f3ccbc2f179f2038cb","condition":"contingent","relevant_dimensions":["wings","pattern"],"bee_group":{"antennae":"X","wings":"1","pattern":"S","legs":"X"},"action":"harvest","summary":"good-harvest","bonus":1.5400000000000011},{"rt":483.1999999284744,"stimulus":"\n                    <p><b>Action: <em>harvest</em></b></p>\n                    <p>This is the bee that you just saw.</p>\n                    <img src=\"bees-with-color/bee-A2DF.svg\" width=\"200\">\n                    <p><span class=\"greenText\"><b>Successful harvest!</b></span><br>Your pay has increased by $0.02. Your bonus pay is now $1.06.</p>\n            ","response":0,"trial_type":"html-button-response","trial_index":134,"time_elapsed":400920,"internal_node_id":"0.0-4.0-1.61","subject_id":"6110372e5ac6859c2699531c","study_id":"6197b3f67c2b5cd3b6d9596a","session_id":"6197b9f3ccbc2f179f2038cb","condition":"contingent","relevant_dimensions":["wings","pattern"],"bee_group":{"antennae":"X","wings":"1","pattern":"S","legs":"X"},"bonus":1.5400000000000011},{"rt":1615.2000000476837,"stimulus":"bees-with-color/bee-B1SM.svg","response":1,"trial_type":"image-button-response","trial_index":135,"time_elapsed":402536,"internal_node_id":"0.0-4.0-0.62","subject_id":"6110372e5ac6859c2699531c","study_id":"6197b3f67c2b5cd3b6d9596a","session_id":"6197b9f3ccbc2f179f2038cb","condition":"contingent","relevant_dimensions":["wings","pattern"],"bee_group":{"antennae":"X","wings":"1","pattern":"S","legs":"X"},"action":"avoid","summary":"good-avoid","bonus":1.5400000000000011},{"rt":520.8999999761581,"stimulus":"\n                    <p><b>Action: <em>avoid</em></b></p>\n                    <p>This is the bee that you just saw.</p>\n                    <img src=\"bees-with-color/bee-B1SM.svg\" width=\"200\">\n                    <p><br>Your bonus pay is unchanged, and remains at $1.06.</p>\n            ","response":0,"trial_type":"html-button-response","trial_index":136,"time_elapsed":403058,"internal_node_id":"0.0-4.0-1.62","subject_id":"6110372e5ac6859c2699531c","study_id":"6197b3f67c2b5cd3b6d9596a","session_id":"6197b9f3ccbc2f179f2038cb","condition":"contingent","relevant_dimensions":["wings","pattern"],"bee_group":{"antennae":"X","wings":"1","pattern":"S","legs":"X"},"bonus":1.5400000000000011},{"rt":1538.6000000238419,"stimulus":"bees-with-color/bee-A1SM.svg","response":1,"trial_type":"image-button-response","trial_index":137,"time_elapsed":404598,"internal_node_id":"0.0-4.0-0.63","subject_id":"6110372e5ac6859c2699531c","study_id":"6197b3f67c2b5cd3b6d9596a","session_id":"6197b9f3ccbc2f179f2038cb","condition":"contingent","relevant_dimensions":["wings","pattern"],"bee_group":{"antennae":"X","wings":"1","pattern":"S","legs":"X"},"action":"avoid","summary":"good-avoid","bonus":1.5400000000000011},{"rt":505,"stimulus":"\n                    <p><b>Action: <em>avoid</em></b></p>\n                    <p>This is the bee that you just saw.</p>\n                    <img src=\"bees-with-color/bee-A1SM.svg\" width=\"200\">\n                    <p><br>Your bonus pay is unchanged, and remains at $1.06.</p>\n            ","response":0,"trial_type":"html-button-response","trial_index":138,"time_elapsed":405104,"internal_node_id":"0.0-4.0-1.63","subject_id":"6110372e5ac6859c2699531c","study_id":"6197b3f67c2b5cd3b6d9596a","session_id":"6197b9f3ccbc2f179f2038cb","condition":"contingent","relevant_dimensions":["wings","pattern"],"bee_group":{"antennae":"X","wings":"1","pattern":"S","legs":"X"},"bonus":1.5400000000000011},{"rt":6539.199999928474,"stimulus":"You have completed the first part of this experiment.<br><br>You will now begin a shorter second part, in which you will receive no feedback.<br>The same rules regarding bonus pay apply.<br><br>Press any key to begin.","response":" ","trial_type":"html-keyboard-response","trial_index":139,"time_elapsed":411644,"internal_node_id":"0.0-5.0","subject_id":"6110372e5ac6859c2699531c","study_id":"6197b3f67c2b5cd3b6d9596a","session_id":"6197b9f3ccbc2f179f2038cb","condition":"contingent","relevant_dimensions":["wings","pattern"],"bee_group":{"antennae":"X","wings":"1","pattern":"S","legs":"X"},"bonus":1.5400000000000011},{"rt":2728.7999999523163,"stimulus":"bees-with-color/bee-B2SM.svg","response":0,"trial_type":"image-button-response","trial_index":140,"time_elapsed":414378,"internal_node_id":"0.0-6.0-0.0","subject_id":"6110372e5ac6859c2699531c","study_id":"6197b3f67c2b5cd3b6d9596a","session_id":"6197b9f3ccbc2f179f2038cb","condition":"contingent","relevant_dimensions":["wings","pattern"],"bee_group":{"antennae":"X","wings":"1","pattern":"S","legs":"X"},"bonus":1.5400000000000011},{"rt":3752.600000023842,"stimulus":"bees-with-color/bee-B1DF.svg","response":0,"trial_type":"image-button-response","trial_index":141,"time_elapsed":418132,"internal_node_id":"0.0-6.0-0.1","subject_id":"6110372e5ac6859c2699531c","study_id":"6197b3f67c2b5cd3b6d9596a","session_id":"6197b9f3ccbc2f179f2038cb","condition":"contingent","relevant_dimensions":["wings","pattern"],"bee_group":{"antennae":"X","wings":"1","pattern":"S","legs":"X"},"bonus":1.5400000000000011},{"rt":1677.8999999761581,"stimulus":"bees-with-color/bee-A2SM.svg","response":0,"trial_type":"image-button-response","trial_index":142,"time_elapsed":419812,"internal_node_id":"0.0-6.0-0.2","subject_id":"6110372e5ac6859c2699531c","study_id":"6197b3f67c2b5cd3b6d9596a","session_id":"6197b9f3ccbc2f179f2038cb","condition":"contingent","relevant_dimensions":["wings","pattern"],"bee_group":{"antennae":"X","wings":"1","pattern":"S","legs":"X"},"bonus":1.5400000000000011},{"rt":1632.6000000238419,"stimulus":"bees-with-color/bee-B2DM.svg","response":0,"trial_type":"image-button-response","trial_index":143,"time_elapsed":421446,"internal_node_id":"0.0-6.0-0.3","subject_id":"6110372e5ac6859c2699531c","study_id":"6197b3f67c2b5cd3b6d9596a","session_id":"6197b9f3ccbc2f179f2038cb","condition":"contingent","relevant_dimensions":["wings","pattern"],"bee_group":{"antennae":"X","wings":"1","pattern":"S","legs":"X"},"bonus":1.5400000000000011},{"rt":908.8999999761581,"stimulus":"bees-with-color/bee-A2SF.svg","response":0,"trial_type":"image-button-response","trial_index":144,"time_elapsed":422356,"internal_node_id":"0.0-6.0-0.4","subject_id":"6110372e5ac6859c2699531c","study_id":"6197b3f67c2b5cd3b6d9596a","session_id":"6197b9f3ccbc2f179f2038cb","condition":"contingent","relevant_dimensions":["wings","pattern"],"bee_group":{"antennae":"X","wings":"1","pattern":"S","legs":"X"},"bonus":1.5400000000000011},{"rt":4748.600000023842,"stimulus":"bees-with-color/bee-B1SM.svg","response":1,"trial_type":"image-button-response","trial_index":145,"time_elapsed":427107,"internal_node_id":"0.0-6.0-0.5","subject_id":"6110372e5ac6859c2699531c","study_id":"6197b3f67c2b5cd3b6d9596a","session_id":"6197b9f3ccbc2f179f2038cb","condition":"contingent","relevant_dimensions":["wings","pattern"],"bee_group":{"antennae":"X","wings":"1","pattern":"S","legs":"X"},"bonus":1.5400000000000011},{"rt":710,"stimulus":"bees-with-color/bee-A1DF.svg","response":0,"trial_type":"image-button-response","trial_index":146,"time_elapsed":427818,"internal_node_id":"0.0-6.0-0.6","subject_id":"6110372e5ac6859c2699531c","study_id":"6197b3f67c2b5cd3b6d9596a","session_id":"6197b9f3ccbc2f179f2038cb","condition":"contingent","relevant_dimensions":["wings","pattern"],"bee_group":{"antennae":"X","wings":"1","pattern":"S","legs":"X"},"bonus":1.5400000000000011},{"rt":4358.600000023842,"stimulus":"bees-with-color/bee-B1SF.svg","response":1,"trial_type":"image-button-response","trial_index":147,"time_elapsed":432178,"internal_node_id":"0.0-6.0-0.7","subject_id":"6110372e5ac6859c2699531c","study_id":"6197b3f67c2b5cd3b6d9596a","session_id":"6197b9f3ccbc2f179f2038cb","condition":"contingent","relevant_dimensions":["wings","pattern"],"bee_group":{"antennae":"X","wings":"1","pattern":"S","legs":"X"},"bonus":1.5400000000000011},{"rt":1162.2999999523163,"stimulus":"bees-with-color/bee-A1SF.svg","response":1,"trial_type":"image-button-response","trial_index":148,"time_elapsed":433342,"internal_node_id":"0.0-6.0-0.8","subject_id":"6110372e5ac6859c2699531c","study_id":"6197b3f67c2b5cd3b6d9596a","session_id":"6197b9f3ccbc2f179f2038cb","condition":"contingent","relevant_dimensions":["wings","pattern"],"bee_group":{"antennae":"X","wings":"1","pattern":"S","legs":"X"},"bonus":1.5400000000000011},{"rt":1286.3999999761581,"stimulus":"bees-with-color/bee-A1SM.svg","response":1,"trial_type":"image-button-response","trial_index":149,"time_elapsed":434630,"internal_node_id":"0.0-6.0-0.9","subject_id":"6110372e5ac6859c2699531c","study_id":"6197b3f67c2b5cd3b6d9596a","session_id":"6197b9f3ccbc2f179f2038cb","condition":"contingent","relevant_dimensions":["wings","pattern"],"bee_group":{"antennae":"X","wings":"1","pattern":"S","legs":"X"},"bonus":1.5400000000000011},{"rt":723,"stimulus":"bees-with-color/bee-A1DM.svg","response":0,"trial_type":"image-button-response","trial_index":150,"time_elapsed":435354,"internal_node_id":"0.0-6.0-0.10","subject_id":"6110372e5ac6859c2699531c","study_id":"6197b3f67c2b5cd3b6d9596a","session_id":"6197b9f3ccbc2f179f2038cb","condition":"contingent","relevant_dimensions":["wings","pattern"],"bee_group":{"antennae":"X","wings":"1","pattern":"S","legs":"X"},"bonus":1.5400000000000011},{"rt":572.5,"stimulus":"bees-with-color/bee-B2DF.svg","response":0,"trial_type":"image-button-response","trial_index":151,"time_elapsed":435928,"internal_node_id":"0.0-6.0-0.11","subject_id":"6110372e5ac6859c2699531c","study_id":"6197b3f67c2b5cd3b6d9596a","session_id":"6197b9f3ccbc2f179f2038cb","condition":"contingent","relevant_dimensions":["wings","pattern"],"bee_group":{"antennae":"X","wings":"1","pattern":"S","legs":"X"},"bonus":1.5400000000000011},{"rt":496.6999999284744,"stimulus":"bees-with-color/bee-A2DF.svg","response":0,"trial_type":"image-button-response","trial_index":152,"time_elapsed":436426,"internal_node_id":"0.0-6.0-0.12","subject_id":"6110372e5ac6859c2699531c","study_id":"6197b3f67c2b5cd3b6d9596a","session_id":"6197b9f3ccbc2f179f2038cb","condition":"contingent","relevant_dimensions":["wings","pattern"],"bee_group":{"antennae":"X","wings":"1","pattern":"S","legs":"X"},"bonus":1.5400000000000011},{"rt":1054.8999999761581,"stimulus":"bees-with-color/bee-B1DM.svg","response":0,"trial_type":"image-button-response","trial_index":153,"time_elapsed":437482,"internal_node_id":"0.0-6.0-0.13","subject_id":"6110372e5ac6859c2699531c","study_id":"6197b3f67c2b5cd3b6d9596a","session_id":"6197b9f3ccbc2f179f2038cb","condition":"contingent","relevant_dimensions":["wings","pattern"],"bee_group":{"antennae":"X","wings":"1","pattern":"S","legs":"X"},"bonus":1.5400000000000011},{"rt":764.6000000238419,"stimulus":"bees-with-color/bee-A2DM.svg","response":0,"trial_type":"image-button-response","trial_index":154,"time_elapsed":438248,"internal_node_id":"0.0-6.0-0.14","subject_id":"6110372e5ac6859c2699531c","study_id":"6197b3f67c2b5cd3b6d9596a","session_id":"6197b9f3ccbc2f179f2038cb","condition":"contingent","relevant_dimensions":["wings","pattern"],"bee_group":{"antennae":"X","wings":"1","pattern":"S","legs":"X"},"bonus":1.5400000000000011},{"rt":1976.6000000238419,"stimulus":"bees-with-color/bee-B2SF.svg","response":0,"trial_type":"image-button-response","trial_index":155,"time_elapsed":440226,"internal_node_id":"0.0-6.0-0.15","subject_id":"6110372e5ac6859c2699531c","study_id":"6197b3f67c2b5cd3b6d9596a","session_id":"6197b9f3ccbc2f179f2038cb","condition":"contingent","relevant_dimensions":["wings","pattern"],"bee_group":{"antennae":"X","wings":"1","pattern":"S","legs":"X"},"bonus":1.5400000000000011},{"rt":876.5999999046326,"stimulus":"bees-with-color/bee-B2SF.svg","response":0,"trial_type":"image-button-response","trial_index":156,"time_elapsed":441104,"internal_node_id":"0.0-6.0-0.16","subject_id":"6110372e5ac6859c2699531c","study_id":"6197b3f67c2b5cd3b6d9596a","session_id":"6197b9f3ccbc2f179f2038cb","condition":"contingent","relevant_dimensions":["wings","pattern"],"bee_group":{"antennae":"X","wings":"1","pattern":"S","legs":"X"},"bonus":1.5400000000000011},{"rt":1504.6000000238419,"stimulus":"bees-with-color/bee-A1SF.svg","response":1,"trial_type":"image-button-response","trial_index":157,"time_elapsed":442610,"internal_node_id":"0.0-6.0-0.17","subject_id":"6110372e5ac6859c2699531c","study_id":"6197b3f67c2b5cd3b6d9596a","session_id":"6197b9f3ccbc2f179f2038cb","condition":"contingent","relevant_dimensions":["wings","pattern"],"bee_group":{"antennae":"X","wings":"1","pattern":"S","legs":"X"},"bonus":1.5400000000000011},{"rt":678.8999999761581,"stimulus":"bees-with-color/bee-B2DF.svg","response":0,"trial_type":"image-button-response","trial_index"