[{"success":true,"trial_type":"fullscreen","trial_index":0,"time_elapsed":4102,"internal_node_id":"0.0-0.0","subject_id":"6102e228afa957e9037adbfe","study_id":"6197b3f67c2b5cd3b6d9596a","session_id":"6197b5c666306b3157204d29","condition":"contingent","relevant_dimensions":["antennae","pattern"],"bee_group":{"antennae":"A","wings":"X","pattern":"S","legs":"X"},"bonus":0.4200000000000004},{"success":true,"timeout":false,"failed_images":[],"failed_audio":[],"failed_video":[],"trial_type":"preload","trial_index":1,"time_elapsed":7045,"internal_node_id":"0.0-1.0","subject_id":"6102e228afa957e9037adbfe","study_id":"6197b3f67c2b5cd3b6d9596a","session_id":"6197b5c666306b3157204d29","condition":"contingent","relevant_dimensions":["antennae","pattern"],"bee_group":{"antennae":"A","wings":"X","pattern":"S","legs":"X"},"bonus":0.4200000000000004},{"rt":3227.699999809265,"stimulus":"Welcome! Press any key to begin.","response":" ","trial_type":"html-keyboard-response","trial_index":2,"time_elapsed":10274,"internal_node_id":"0.0-2.0","subject_id":"6102e228afa957e9037adbfe","study_id":"6197b3f67c2b5cd3b6d9596a","session_id":"6197b5c666306b3157204d29","condition":"contingent","relevant_dimensions":["antennae","pattern"],"bee_group":{"antennae":"A","wings":"X","pattern":"S","legs":"X"},"bonus":0.4200000000000004},{"view_history":[{"page_index":0,"viewing_time":5988.800000190735},{"page_index":1,"viewing_time":13454.29999923706},{"page_index":2,"viewing_time":11208.10000038147},{"page_index":3,"viewing_time":13118.800000190735},{"page_index":4,"viewing_time":8435.300000190735},{"page_index":5,"viewing_time":5195.799999237061},{"page_index":6,"viewing_time":11791.5},{"page_index":7,"viewing_time":11593.5},{"page_index":8,"viewing_time":9801.400000572205},{"page_index":9,"viewing_time":4432},{"page_index":10,"viewing_time":5364.39999961853},{"page_index":11,"viewing_time":9948.10000038147},{"page_index":12,"viewing_time":14331.89999961853},{"page_index":13,"viewing_time":2238.300000190735},{"page_index":14,"viewing_time":1512.5}],"rt":128415.39999961853,"trial_type":"instructions","trial_index":3,"time_elapsed":138691,"internal_node_id":"0.0-3.0-0.0","subject_id":"6102e228afa957e9037adbfe","study_id":"6197b3f67c2b5cd3b6d9596a","session_id":"6197b5c666306b3157204d29","condition":"contingent","relevant_dimensions":["antennae","pattern"],"bee_group":{"antennae":"A","wings":"X","pattern":"S","legs":"X"},"bonus":0.4200000000000004},{"rt":18121.20000076294,"response":{"Q0":["Two or six legs","Stripes or spots on body","Single or double wings","Antennae or no antennae"]},"question_order":[0],"trial_type":"survey-multi-select","trial_index":4,"time_elapsed":156821,"internal_node_id":"0.0-3.0-1.0","subject_id":"6102e228afa957e9037adbfe","study_id":"6197b3f67c2b5cd3b6d9596a","session_id":"6197b5c666306b3157204d29","condition":"contingent","relevant_dimensions":["antennae","pattern"],"bee_group":{"antennae":"A","wings":"X","pattern":"S","legs":"X"},"correct":true,"bonus":0.4200000000000004},{"rt":26333.39999961853,"response":{"Q1":"No.","Q2":"Based on the four features of the bee.","Q3":"You do not learn if it was friendly or dangerous, and do not alter your bonus."},"question_order":[0,1,2],"trial_type":"survey-multi-choice","trial_index":5,"time_elapsed":183162,"internal_node_id":"0.0-3.0-2.0","subject_id":"6102e228afa957e9037adbfe","study_id":"6197b3f67c2b5cd3b6d9596a","session_id":"6197b5c666306b3157204d29","condition":"contingent","relevant_dimensions":["antennae","pattern"],"bee_group":{"antennae":"A","wings":"X","pattern":"S","legs":"X"},"correct":true,"bonus":0.4200000000000004},{"rt":1989.3999996185303,"stimulus":"<p>Congrats, you got everything right<br>When you're ready, click the button below to continue to the experiment.</p>","response":0,"trial_type":"html-button-response","trial_index":6,"time_elapsed":185155,"internal_node_id":"0.0-3.0-3.0","subject_id":"6102e228afa957e9037adbfe","study_id":"6197b3f67c2b5cd3b6d9596a","session_id":"6197b5c666306b3157204d29","condition":"contingent","relevant_dimensions":["antennae","pattern"],"bee_group":{"antennae":"A","wings":"X","pattern":"S","legs":"X"},"bonus":0.4200000000000004},{"rt":11451.400000572205,"stimulus":"bees-with-color/bee-B1DF.svg","response":1,"trial_type":"image-button-response","trial_index":7,"time_elapsed":196613,"internal_node_id":"0.0-4.0-0.0","subject_id":"6102e228afa957e9037adbfe","study_id":"6197b3f67c2b5cd3b6d9596a","session_id":"6197b5c666306b3157204d29","condition":"contingent","relevant_dimensions":["antennae","pattern"],"bee_group":{"antennae":"A","wings":"X","pattern":"S","legs":"X"},"action":"avoid","summary":"bad-avoid","bonus":0.4200000000000004},{"rt":11772.300000190735,"stimulus":"\n                    <p><b>Action: <em>avoid</em></b></p>\n                    <p>This is the bee that you just saw.</p>\n                    <img src=\"bees-with-color/bee-B1DF.svg\" width=\"200\">\n                    <p><br>Your bonus pay is unchanged, and remains at $0.54.</p>\n            ","response":0,"trial_type":"html-button-response","trial_index":8,"time_elapsed":208400,"internal_node_id":"0.0-4.0-1.0","subject_id":"6102e228afa957e9037adbfe","study_id":"6197b3f67c2b5cd3b6d9596a","session_id":"6197b5c666306b3157204d29","condition":"contingent","relevant_dimensions":["antennae","pattern"],"bee_group":{"antennae":"A","wings":"X","pattern":"S","legs":"X"},"bonus":0.4200000000000004},{"rt":7194.800000190735,"stimulus":"bees-with-color/bee-A1SF.svg","response":0,"trial_type":"image-button-response","trial_index":9,"time_elapsed":215603,"internal_node_id":"0.0-4.0-0.1","subject_id":"6102e228afa957e9037adbfe","study_id":"6197b3f67c2b5cd3b6d9596a","session_id":"6197b5c666306b3157204d29","condition":"contingent","relevant_dimensions":["antennae","pattern"],"bee_group":{"antennae":"A","wings":"X","pattern":"S","legs":"X"},"action":"harvest","summary":"bad-harvest","bonus":0.4200000000000004},{"rt":7603.5,"stimulus":"\n                    <p><b>Action: <em>harvest</em></b></p>\n                    <p>This is the bee that you just saw.</p>\n                    <img src=\"bees-with-color/bee-A1SF.svg\" width=\"200\">\n                    <p><span class=\"redText\">Bad choice, the bee was angry.</span><br><b>You have been stung!</b><br>Your pay has been decreased by $0.10. Your bonus pay is now $0.44.</p>\n            ","response":0,"trial_type":"html-button-response","trial_index":10,"time_elapsed":223211,"internal_node_id":"0.0-4.0-1.1","subject_id":"6102e228afa957e9037adbfe","study_id":"6197b3f67c2b5cd3b6d9596a","session_id":"6197b5c666306b3157204d29","condition":"contingent","relevant_dimensions":["antennae","pattern"],"bee_group":{"antennae":"A","wings":"X","pattern":"S","legs":"X"},"bonus":0.4200000000000004},{"rt":2905.800000190735,"stimulus":"bees-with-color/bee-B1SF.svg","response":0,"trial_type":"image-button-response","trial_index":11,"time_elapsed":226121,"internal_node_id":"0.0-4.0-0.2","subject_id":"6102e228afa957e9037adbfe","study_id":"6197b3f67c2b5cd3b6d9596a","session_id":"6197b5c666306b3157204d29","condition":"contingent","relevant_dimensions":["antennae","pattern"],"bee_group":{"antennae":"A","wings":"X","pattern":"S","legs":"X"},"action":"harvest","summary":"good-harvest","bonus":0.4200000000000004},{"rt":2150.800000190735,"stimulus":"\n                    <p><b>Action: <em>harvest</em></b></p>\n                    <p>This is the bee that you just saw.</p>\n                    <img src=\"bees-with-color/bee-B1SF.svg\" width=\"200\">\n                    <p><span class=\"greenText\"><b>Successful harvest!</b></span><br>Your pay has increased by $0.02. Your bonus pay is now $0.46.</p>\n            ","response":0,"trial_type":"html-button-response","trial_index":12,"time_elapsed":228276,"internal_node_id":"0.0-4.0-1.2","subject_id":"6102e228afa957e9037adbfe","study_id":"6197b3f67c2b5cd3b6d9596a","session_id":"6197b5c666306b3157204d29","condition":"contingent","relevant_dimensions":["antennae","pattern"],"bee_group":{"antennae":"A","wings":"X","pattern":"S","legs":"X"},"bonus":0.4200000000000004},{"rt":3434.4000005722046,"stimulus":"bees-with-color/bee-A2DF.svg","response":1,"trial_type":"image-button-response","trial_index":13,"time_elapsed":231714,"internal_node_id":"0.0-4.0-0.3","subject_id":"6102e228afa957e9037adbfe","study_id":"6197b3f67c2b5cd3b6d9596a","session_id":"6197b5c666306b3157204d29","condition":"contingent","relevant_dimensions":["antennae","pattern"],"bee_group":{"antennae":"A","wings":"X","pattern":"S","legs":"X"},"action":"avoid","summary":"bad-avoid","bonus":0.4200000000000004},{"rt":1949.5,"stimulus":"\n                    <p><b>Action: <em>avoid</em></b></p>\n                    <p>This is the bee that you just saw.</p>\n                    <img src=\"bees-with-color/bee-A2DF.svg\" width=\"200\">\n                    <p><br>Your bonus pay is unchanged, and remains at $0.46.</p>\n            ","response":0,"trial_type":"html-button-response","trial_index":14,"time_elapsed":233669,"internal_node_id":"0.0-4.0-1.3","subject_id":"6102e228afa957e9037adbfe","study_id":"6197b3f67c2b5cd3b6d9596a","session_id":"6197b5c666306b3157204d29","condition":"contingent","relevant_dimensions":["antennae","pattern"],"bee_group":{"antennae":"A","wings":"X","pattern":"S","legs":"X"},"bonus":0.4200000000000004},{"rt":9292.300000190735,"stimulus":"bees-with-color/bee-B1SM.svg","response":1,"trial_type":"image-button-response","trial_index":15,"time_elapsed":242968,"internal_node_id":"0.0-4.0-0.4","subject_id":"6102e228afa957e9037adbfe","study_id":"6197b3f67c2b5cd3b6d9596a","session_id":"6197b5c666306b3157204d29","condition":"contingent","relevant_dimensions":["antennae","pattern"],"bee_group":{"antennae":"A","wings":"X","pattern":"S","legs":"X"},"action":"avoid","summary":"bad-avoid","bonus":0.4200000000000004},{"rt":5179.89999961853,"stimulus":"\n                    <p><b>Action: <em>avoid</em></b></p>\n                    <p>This is the bee that you just saw.</p>\n                    <img src=\"bees-with-color/bee-B1SM.svg\" width=\"200\">\n                    <p><br>Your bonus pay is unchanged, and remains at $0.46.</p>\n            ","response":0,"trial_type":"html-button-response","trial_index":16,"time_elapsed":248154,"internal_node_id":"0.0-4.0-1.4","subject_id":"6102e228afa957e9037adbfe","study_id":"6197b3f67c2b5cd3b6d9596a","session_id":"6197b5c666306b3157204d29","condition":"contingent","relevant_dimensions":["antennae","pattern"],"bee_group":{"antennae":"A","wings":"X","pattern":"S","legs":"X"},"bonus":0.4200000000000004},{"rt":6862.800000190735,"stimulus":"bees-with-color/bee-B2DF.svg","response":1,"trial_type":"image-button-response","trial_index":17,"time_elapsed":255022,"internal_node_id":"0.0-4.0-0.5","subject_id":"6102e228afa957e9037adbfe","study_id":"6197b3f67c2b5cd3b6d9596a","session_id":"6197b5c666306b3157204d29","condition":"contingent","relevant_dimensions":["antennae","pattern"],"bee_group":{"antennae":"A","wings":"X","pattern":"S","legs":"X"},"action":"avoid","summary":"bad-avoid","bonus":0.4200000000000004},{"rt":1373.6999998092651,"stimulus":"\n                    <p><b>Action: <em>avoid</em></b></p>\n                    <p>This is the bee that you just saw.</p>\n                    <img src=\"bees-with-color/bee-B2DF.svg\" width=\"200\">\n                    <p><br>Your bonus pay is unchanged, and remains at $0.46.</p>\n            ","response":0,"trial_type":"html-button-response","trial_index":18,"time_elapsed":256399,"internal_node_id":"0.0-4.0-1.5","subject_id":"6102e228afa957e9037adbfe","study_id":"6197b3f67c2b5cd3b6d9596a","session_id":"6197b5c666306b3157204d29","condition":"contingent","relevant_dimensions":["antennae","pattern"],"bee_group":{"antennae":"A","wings":"X","pattern":"S","legs":"X"},"bonus":0.4200000000000004},{"rt":7432.599999427795,"stimulus":"bees-with-color/bee-A2DM.svg","response":0,"trial_type":"image-button-response","trial_index":19,"time_elapsed":263840,"internal_node_id":"0.0-4.0-0.6","subject_id":"6102e228afa957e9037adbfe","study_id":"6197b3f67c2b5cd3b6d9596a","session_id":"6197b5c666306b3157204d29","condition":"contingent","relevant_dimensions":["antennae","pattern"],"bee_group":{"antennae":"A","wings":"X","pattern":"S","legs":"X"},"action":"harvest","summary":"good-harvest","bonus":0.4200000000000004},{"rt":1383.7000007629395,"stimulus":"\n                    <p><b>Action: <em>harvest</em></b></p>\n                    <p>This is the bee that you just saw.</p>\n                    <img src=\"bees-with-color/bee-A2DM.svg\" width=\"200\">\n                    <p><span class=\"greenText\"><b>Successful harvest!</b></span><br>Your pay has increased by $0.02. Your bonus pay is now $0.48.</p>\n            ","response":0,"trial_type":"html-button-response","trial_index":20,"time_elapsed":265228,"internal_node_id":"0.0-4.0-1.6","subject_id":"6102e228afa957e9037adbfe","study_id":"6197b3f67c2b5cd3b6d9596a","session_id":"6197b5c666306b3157204d29","condition":"contingent","relevant_dimensions":["antennae","pattern"],"bee_group":{"antennae":"A","wings":"X","pattern":"S","legs":"X"},"bonus":0.4200000000000004},{"rt":3044.199999809265,"stimulus":"bees-with-color/bee-A1SM.svg","response":0,"trial_type":"image-button-response","trial_index":21,"time_elapsed":268276,"internal_node_id":"0.0-4.0-0.7","subject_id":"6102e228afa957e9037adbfe","study_id":"6197b3f67c2b5cd3b6d9596a","session_id":"6197b5c666306b3157204d29","condition":"contingent","relevant_dimensions":["antennae","pattern"],"bee_group":{"antennae":"A","wings":"X","pattern":"S","legs":"X"},"action":"harvest","summary":"bad-harvest","bonus":0.4200000000000004},{"rt":1494,"stimulus":"\n                    <p><b>Action: <em>harvest</em></b></p>\n                    <p>This is the bee that you just saw.</p>\n                    <img src=\"bees-with-color/bee-A1SM.svg\" width=\"200\">\n                    <p><span class=\"redText\">Bad choice, the bee was angry.</span><br><b>You have been stung!</b><br>Your pay has been decreased by $0.10. Your bonus pay is now $0.38.</p>\n            ","response":0,"trial_type":"html-button-response","trial_index":22,"time_elapsed":269774,"internal_node_id":"0.0-4.0-1.7","subject_id":"6102e228afa957e9037adbfe","study_id":"6197b3f67c2b5cd3b6d9596a","session_id":"6197b5c666306b3157204d29","condition":"contingent","relevant_dimensions":["antennae","pattern"],"bee_group":{"antennae":"A","wings":"X","pattern":"S","legs":"X"},"bonus":0.4200000000000004},{"rt":2119.8999996185303,"stimulus":"bees-with-color/bee-A1DF.svg","response":0,"trial_type":"image-button-response","trial_index":23,"time_elapsed":271899,"internal_node_id":"0.0-4.0-0.8","subject_id":"6102e228afa957e9037adbfe","study_id":"6197b3f67c2b5cd3b6d9596a","session_id":"6197b5c666306b3157204d29","condition":"contingent","relevant_dimensions":["antennae","pattern"],"bee_group":{"antennae":"A","wings":"X","pattern":"S","legs":"X"},"action":"harvest","summary":"good-harvest","bonus":0.4200000000000004},{"rt":1155,"stimulus":"\n                    <p><b>Action: <em>harvest</em></b></p>\n                    <p>This is the bee that you just saw.</p>\n                    <img src=\"bees-with-color/bee-A1DF.svg\" width=\"200\">\n                    <p><span class=\"greenText\"><b>Successful harvest!</b></span><br>Your pay has increased by $0.02. Your bonus pay is now $0.40.</p>\n            ","response":0,"trial_type":"html-button-response","trial_index":24,"time_elapsed":273059,"internal_node_id":"0.0-4.0-1.8","subject_id":"6102e228afa957e9037adbfe","study_id":"6197b3f67c2b5cd3b6d9596a","session_id":"6197b5c666306b3157204d29","condition":"contingent","relevant_dimensions":["antennae","pattern"],"bee_group":{"antennae":"A","wings":"X","pattern":"S","legs":"X"},"bonus":0.4200000000000004},{"rt":6399.199999809265,"stimulus":"bees-with-color/bee-B1DM.svg","response":1,"trial_type":"image-button-response","trial_index":25,"time_elapsed":279463,"internal_node_id":"0.0-4.0-0.9","subject_id":"6102e228afa957e9037adbfe","study_id":"6197b3f67c2b5cd3b6d9596a","session_id":"6197b5c666306b3157204d29","condition":"contingent","relevant_dimensions":["antennae","pattern"],"bee_group":{"antennae":"A","wings":"X","pattern":"S","legs":"X"},"action":"avoid","summary":"bad-avoid","bonus":0.4200000000000004},{"rt":3339.6000003814697,"stimulus":"\n                    <p><b>Action: <em>avoid</em></b></p>\n                    <p>This is the bee that you just saw.</p>\n                    <img src=\"bees-with-color/bee-B1DM.svg\" width=\"200\">\n                    <p><br>Your bonus pay is unchanged, and remains at $0.40.</p>\n            ","response":0,"trial_type":"html-button-response","trial_index":26,"time_elapsed":282809,"internal_node_id":"0.0-4.0-1.9","subject_id":"6102e228afa957e9037adbfe","study_id":"6197b3f67c2b5cd3b6d9596a","session_id":"6197b5c666306b3157204d29","condition":"contingent","relevant_dimensions":["antennae","pattern"],"bee_group":{"antennae":"A","wings":"X","pattern":"S","legs":"X"},"bonus":0.4200000000000004},{"rt":3715,"stimulus":"bees-with-color/bee-B2DM.svg","response":0,"trial_type":"image-button-response","trial_index":27,"time_elapsed":286530,"internal_node_id":"0.0-4.0-0.10","subject_id":"6102e228afa957e9037adbfe","study_id":"6197b3f67c2b5cd3b6d9596a","session_id":"6197b5c666306b3157204d29","condition":"contingent","relevant_dimensions":["antennae","pattern"],"bee_group":{"antennae":"A","wings":"X","pattern":"S","legs":"X"},"action":"harvest","summary":"good-harvest","bonus":0.4200000000000004},{"rt":2063.5999994277954,"stimulus":"\n                    <p><b>Action: <em>harvest</em></b></p>\n                    <p>This is the bee that you just saw.</p>\n                    <img src=\"bees-with-color/bee-B2DM.svg\" width=\"200\">\n                    <p><span class=\"greenText\"><b>Successful harvest!</b></span><br>Your pay has increased by $0.02. Your bonus pay is now $0.42.</p>\n            ","response":0,"trial_type":"html-button-response","trial_index":28,"time_elapsed":288599,"internal_node_id":"0.0-4.0-1.10","subject_id":"6102e228afa957e9037adbfe","study_id":"6197b3f67c2b5cd3b6d9596a","session_id":"6197b5c666306b3157204d29","condition":"contingent","relevant_dimensions":["antennae","pattern"],"bee_group":{"antennae":"A","wings":"X","pattern":"S","legs":"X"},"bonus":0.4200000000000004},{"rt":4191.400000572205,"stimulus":"bees-with-color/bee-A2SM.svg","response":1,"trial_type":"image-button-response","trial_index":29,"time_elapsed":292794,"internal_node_id":"0.0-4.0-0.11","subject_id":"6102e228afa957e9037adbfe","study_id":"6197b3f67c2b5cd3b6d9596a","session_id":"6197b5c666306b3157204d29","condition":"contingent","relevant_dimensions":["antennae","pattern"],"bee_group":{"antennae":"A","wings":"X","pattern":"S","legs":"X"},"action":"avoid","summary":"good-avoid","bonus":0.4200000000000004},{"rt":1521.3000001907349,"stimulus":"\n                    <p><b>Action: <em>avoid</em></b></p>\n                    <p>This is the bee that you just saw.</p>\n                    <img src=\"bees-with-color/bee-A2SM.svg\" width=\"200\">\n                    <p><br>Your bonus pay is unchanged, and remains at $0.42.</p>\n            ","response":0,"trial_type":"html-button-response","trial_index":30,"time_elapsed":294321,"internal_node_id":"0.0-4.0-1.11","subject_id":"6102e228afa957e9037adbfe","study_id":"6197b3f67c2b5cd3b6d9596a","session_id":"6197b5c666306b3157204d29","condition":"contingent","relevant_dimensions":["antennae","pattern"],"bee_group":{"antennae":"A","wings":"X","pattern":"S","legs":"X"},"bonus":0.4200000000000004},{"rt":2824.1000003814697,"stimulus":"bees-with-color/bee-A1DM.svg","response":1,"trial_type":"image-button-response","trial_index":31,"time_elapsed":297148,"internal_node_id":"0.0-4.0-0.12","subject_id":"6102e228afa957e9037adbfe","study_id":"6197b3f67c2b5cd3b6d9596a","session_id":"6197b5c666306b3157204d29","condition":"contingent","relevant_dimensions":["antennae","pattern"],"bee_group":{"antennae":"A","wings":"X","pattern":"S","legs":"X"},"action":"avoid","summary":"bad-avoid","bonus":0.4200000000000004},{"rt":998.6999998092651,"stimulus":"\n                    <p><b>Action: <em>avoid</em></b></p>\n                    <p>This is the bee that you just saw.</p>\n                    <img src=\"bees-with-color/bee-A1DM.svg\" width=\"200\">\n                    <p><br>Your bonus pay is unchanged, and remains at $0.42.</p>\n            ","response":0,"trial_type":"html-button-response","trial_index":32,"time_elapsed":298149,"internal_node_id":"0.0-4.0-1.12","subject_id":"6102e228afa957e9037adbfe","study_id":"6197b3f67c2b5cd3b6d9596a","session_id":"6197b5c666306b3157204d29","condition":"contingent","relevant_dimensions":["antennae","pattern"],"bee_group":{"antennae":"A","wings":"X","pattern":"S","legs":"X"},"bonus":0.4200000000000004},{"rt":2465,"stimulus":"bees-with-color/bee-B2SM.svg","response":0,"trial_type":"image-button-response","trial_index":33,"time_elapsed":300617,"internal_node_id":"0.0-4.0-0.13","subject_id":"6102e228afa957e9037adbfe","study_id":"6197b3f67c2b5cd3b6d9596a","session_id":"6197b5c666306b3157204d29","condition":"contingent","relevant_dimensions":["antennae","pattern"],"bee_group":{"antennae":"A","wings":"X","pattern":"S","legs":"X"},"action":"harvest","summary":"good-harvest","bonus":0.4200000000000004},{"rt":1303.9000005722046,"stimulus":"\n                    <p><b>Action: <em>harvest</em></b></p>\n                    <p>This is the bee that you just saw.</p>\n                    <img src=\"bees-with-color/bee-B2SM.svg\" width=\"200\">\n                    <p><span class=\"greenText\"><b>Successful harvest!</b></span><br>Your pay has increased by $0.02. Your bonus pay is now $0.44.</p>\n            ","response":0,"trial_type":"html-button-response","trial_index":34,"time_elapsed":301923,"internal_node_id":"0.0-4.0-1.13","subject_id":"6102e228afa957e9037adbfe","study_id":"6197b3f67c2b5cd3b6d9596a","session_id":"6197b5c666306b3157204d29","condition":"contingent","relevant_dimensions":["antennae","pattern"],"bee_group":{"antennae":"A","wings":"X","pattern":"S","legs":"X"},"bonus":0.4200000000000004},{"rt":2602.2000007629395,"stimulus":"bees-with-color/bee-B2SF.svg","response":0,"trial_type":"image-button-response","trial_index":35,"time_elapsed":304526,"internal_node_id":"0.0-4.0-0.14","subject_id":"6102e228afa957e9037adbfe","study_id":"6197b3f67c2b5cd3b6d9596a","session_id":"6197b5c666306b3157204d29","condition":"contingent","relevant_dimensions":["antennae","pattern"],"bee_group":{"antennae":"A","wings":"X","pattern":"S","legs":"X"},"action":"harvest","summary":"good-harvest","bonus":0.4200000000000004},{"rt":1533,"stimulus":"\n                    <p><b>Action: <em>harvest</em></b></p>\n                    <p>This is the bee that you just saw.</p>\n                    <img src=\"bees-with-color/bee-B2SF.svg\" width=\"200\">\n                    <p><span class=\"greenText\"><b>Successful harvest!</b></span><br>Your pay has increased by $0.02. Your bonus pay is now $0.46.</p>\n            ","response":0,"trial_type":"html-button-response","trial_index":36,"time_elapsed":306062,"internal_node_id":"0.0-4.0-1.14","subject_id":"6102e228afa957e9037adbfe","study_id":"6197b3f67c2b5cd3b6d9596a","session_id":"6197b5c666306b3157204d29","condition":"contingent","relevant_dimensions":["antennae","pattern"],"bee_group":{"antennae":"A","wings":"X","pattern":"S","legs":"X"},"bonus":0.4200000000000004},{"rt":5069.599999427795,"stimulus":"bees-with-color/bee-A2SF.svg","response":1,"trial_type":"image-button-response","trial_index":37,"time_elapsed":311134,"internal_node_id":"0.0-4.0-0.15","subject_id":"6102e228afa957e9037adbfe","study_id":"6197b3f67c2b5cd3b6d9596a","session_id":"6197b5c666306b3157204d29","condition":"contingent","relevant_dimensions":["antennae","pattern"],"bee_group":{"antennae":"A","wings":"X","pattern":"S","legs":"X"},"action":"avoid","summary":"good-avoid","bonus":0.4200000000000004},{"rt":1824.3999996185303,"stimulus":"\n                    <p><b>Action: <em>avoid</em></b></p>\n                    <p>This is the bee that you just saw.</p>\n                    <img src=\"bees-with-color/bee-A2SF.svg\" width=\"200\">\n                    <p><br>Your bonus pay is unchanged, and remains at $0.46.</p>\n            ","response":0,"trial_type":"html-button-response","trial_index":38,"time_elapsed":312962,"internal_node_id":"0.0-4.0-1.15","subject_id":"6102e228afa957e9037adbfe","study_id":"6197b3f67c2b5cd3b6d9596a","session_id":"6197b5c666306b3157204d29","condition":"contingent","relevant_dimensions":["antennae","pattern"],"bee_group":{"antennae":"A","wings":"X","pattern":"S","legs":"X"},"bonus":0.4200000000000004},{"rt":3073.8999996185303,"stimulus":"bees-with-color/bee-A2SF.svg","response":1,"trial_type":"image-button-response","trial_index":39,"time_elapsed":316039,"internal_node_id":"0.0-4.0-0.16","subject_id":"6102e228afa957e9037adbfe","study_id":"6197b3f67c2b5cd3b6d9596a","session_id":"6197b5c666306b3157204d29","condition":"contingent","relevant_dimensions":["antennae","pattern"],"bee_group":{"antennae":"A","wings":"X","pattern":"S","legs":"X"},"action":"avoid","summary":"good-avoid","bonus":0.4200000000000004},{"rt":1310.6000003814697,"stimulus":"\n                    <p><b>Action: <em>avoid</em></b></p>\n                    <p>This is the bee that you just saw.</p>\n                    <img src=\"bees-with-color/bee-A2SF.svg\" width=\"200\">\n                    <p><br>Your bonus pay is unchanged, and remains at $0.46.</p>\n            ","response":0,"trial_type":"html-button-response","trial_index":40,"time_elapsed":317353,"internal_node_id":"0.0-4.0-1.16","subject_id":"6102e228afa957e9037adbfe","study_id":"6197b3f67c2b5cd3b6d9596a","session_id":"6197b5c666306b3157204d29","condition":"contingent","relevant_dimensions":["antennae","pattern"],"bee_group":{"antennae":"A","wings":"X","pattern":"S","legs":"X"},"bonus":0.4200000000000004},{"rt":1899.2000007629395,"stimulus":"bees-with-color/bee-B2DM.svg","response":0,"trial_type":"image-button-response","trial_index":41,"time_elapsed":319256,"internal_node_id":"0.0-4.0-0.17","subject_id":"6102e228afa957e9037adbfe","study_id":"6197b3f67c2b5cd3b6d9596a","session_id":"6197b5c666306b3157204d29","condition":"contingent","relevant_dimensions":["antennae","pattern"],"bee_group":{"antennae":"A","wings":"X","pattern":"S","legs":"X"},"action":"harvest","summary":"good-harvest","bonus":0.4200000000000004},{"rt":1753.6999998092651,"stimulus":"\n                    <p><b>Action: <em>harvest</em></b></p>\n                    <p>This is the bee that you just saw.</p>\n                    <img src=\"bees-with-color/bee-B2DM.svg\" width=\"200\">\n                    <p><span class=\"greenText\"><b>Successful harvest!</b></span><br>Your pay has increased by $0.02. Your bonus pay is now $0.48.</p>\n            ","response":0,"trial_type":"html-button-response","trial_index":42,"time_elapsed":321013,"internal_node_id":"0.0-4.0-1.17","subject_id":"6102e228afa957e9037adbfe","study_id":"6197b3f67c2b5cd3b6d9596a","session_id":"6197b5c666306b3157204d29","condition":"contingent","relevant_dimensions":["antennae","pattern"],"bee_group":{"antennae":"A","wings":"X","pattern":"S","legs":"X"},"bonus":0.4200000000000004},{"rt":2900.199999809265,"stimulus":"bees-with-color/bee-B1SF.svg","response":1,"trial_type":"image-button-response","trial_index":43,"time_elapsed":323916,"internal_node_id":"0.0-4.0-0.18","subject_id":"6102e228afa957e9037adbfe","study_id":"6197b3f67c2b5cd3b6d9596a","session_id":"6197b5c666306b3157204d29","condition":"contingent","relevant_dimensions":["antennae","pattern"],"bee_group":{"antennae":"A","wings":"X","pattern":"S","legs":"X"},"action":"avoid","summary":"bad-avoid","bonus":0.4200000000000004},{"rt":974.7999992370605,"stimulus":"\n                    <p><b>Action: <em>avoid</em></b></p>\n                    <p>This is the bee that you just saw.</p>\n                    <img src=\"bees-with-color/bee-B1SF.svg\" width=\"200\">\n                    <p><br>Your bonus pay is unchanged, and remains at $0.48.</p>\n            ","response":0,"trial_type":"html-button-response","trial_index":44,"time_elapsed":324894,"internal_node_id":"0.0-4.0-1.18","subject_id":"6102e228afa957e9037adbfe","study_id":"6197b3f67c2b5cd3b6d9596a","session_id":"6197b5c666306b3157204d29","condition":"contingent","relevant_dimensions":["antennae","pattern"],"bee_group":{"antennae":"A","wings":"X","pattern":"S","legs":"X"},"bonus":0.4200000000000004},{"rt":2205.4000005722046,"stimulus":"bees-with-color/bee-B2SF.svg","response":1,"trial_type":"image-button-response","trial_index":45,"time_elapsed":327103,"internal_node_id":"0.0-4.0-0.19","subject_id":"6102e228afa957e9037adbfe","study_id":"6197b3f67c2b5cd3b6d9596a","session_id":"6197b5c666306b3157204d29","condition":"contingent","relevant_dimensions":["antennae","pattern"],"bee_group":{"antennae":"A","wings":"X","pattern":"S","legs":"X"},"action":"avoid","summary":"bad-avoid","bonus":0.4200000000000004},{"rt":1308.9000005722046,"stimulus":"\n                    <p><b>Action: <em>avoid</em></b></p>\n                    <p>This is the bee that you just saw.</p>\n                    <img src=\"bees-with-color/bee-B2SF.svg\" width=\"200\">\n                    <p><br>Your bonus pay is unchanged, and remains at $0.48.</p>\n            ","response":0,"trial_type":"html-button-response","trial_index":46,"time_elapsed":328416,"internal_node_id":"0.0-4.0-1.19","subject_id":"6102e228afa957e9037adbfe","study_id":"6197b3f67c2b5cd3b6d9596a","session_id":"6197b5c666306b3157204d29","condition":"contingent","relevant_dimensions":["antennae","pattern"],"bee_group":{"antennae":"A","wings":"X","pattern":"S","legs":"X"},"bonus":0.4200000000000004},{"rt":1647,"stimulus":"bees-with-color/bee-A1SF.svg","response":1,"trial_type":"image-button-response","trial_index":47,"time_elapsed":330066,"internal_node_id":"0.0-4.0-0.20","subject_id":"6102e228afa957e9037adbfe","study_id":"6197b3f67c2b5cd3b6d9596a","session_id":"6197b5c666306b3157204d29","condition":"contingent","relevant_dimensions":["antennae","pattern"],"bee_group":{"antennae":"A","wings":"X","pattern":"S","legs":"X"},"action":"avoid","summary":"good-avoid","bonus":0.4200000000000004},{"rt":937.1999998092651,"stimulus":"\n                    <p><b>Action: <em>avoid</em></b></p>\n                    <p>This is the bee that you just saw.</p>\n                    <img src=\"bees-with-color/bee-A1SF.svg\" width=\"200\">\n                    <p><br>Your bonus pay is unchanged, and remains at $0.48.</p>\n            ","response":0,"trial_type":"html-button-response","trial_index":48,"time_elapsed":331006,"internal_node_id":"0.0-4.0-1.20","subject_id":"6102e228afa957e9037adbfe","study_id":"6197b3f67c2b5cd3b6d9596a","session_id":"6197b5c666306b3157204d29","condition":"contingent","relevant_dimensions":["antennae","pattern"],"bee_group":{"antennae":"A","wings":"X","pattern":"S","legs":"X"},"bonus":0.4200000000000004},{"rt":1777.3000001907349,"stimulus":"bees-with-color/bee-A2DM.svg","response":0,"trial_type":"image-button-response","trial_index":49,"time_elapsed":332787,"internal_node_id":"0.0-4.0-0.21","subject_id":"6102e228afa957e9037adbfe","study_id":"6197b3f67c2b5cd3b6d9596a","session_id":"6197b5c666306b3157204d29","condition":"contingent","relevant_dimensions":["antennae","pattern"],"bee_group":{"antennae":"A","wings":"X","pattern":"S","legs":"X"},"action":"harvest","summary":"good-harvest","bonus":0.4200000000000004},{"rt":2445.8999996185303,"stimulus":"\n                    <p><b>Action: <em>harvest</em></b></p>\n                    <p>This is the bee that you just saw.</p>\n                    <img src=\"bees-with-color/bee-A2DM.svg\" width=\"200\">\n                    <p><span class=\"greenText\"><b>Successful harvest!</b></span><br>Your pay has increased by $0.02. Your bonus pay is now $0.50.</p>\n            ","response":0,"trial_type":"html-button-response","trial_index":50,"time_elapsed":335239,"internal_node_id":"0.0-4.0-1.21","subject_id":"6102e228afa957e9037adbfe","study_id":"6197b3f67c2b5cd3b6d9596a","session_id":"6197b5c666306b3157204d29","condition":"contingent","relevant_dimensions":["antennae","pattern"],"bee_group":{"antennae":"A","wings":"X","pattern":"S","legs":"X"},"bonus":0.4200000000000004},{"rt":2172.8999996185303,"stimulus":"bees-with-color/bee-A2DF.svg","response":1,"trial_type":"image-button-response","trial_index":51,"time_elapsed":337415,"internal_node_id":"0.0-4.0-0.22","subject_id":"6102e228afa957e9037adbfe","study_id":"6197b3f67c2b5cd3b6d9596a","session_id":"6197b5c666306b3157204d29","condition":"contingent","relevant_dimensions":["antennae","pattern"],"bee_group":{"antennae":"A","wings":"X","pattern":"S","legs":"X"},"action":"avoid","summary":"bad-avoid","bonus":0.4200000000000004},{"rt":1043.1999998092651,"stimulus":"\n                    <p><b>Action: <em>avoid</em></b></p>\n                    <p>This is the bee that you just saw.</p>\n                    <img src=\"bees-with-color/bee-A2DF.svg\" width=\"200\">\n                    <p><br>Your bonus pay is unchanged, and remains at $0.50.</p>\n            ","response":0,"trial_type":"html-button-response","trial_index":52,"time_elapsed":338462,"internal_node_id":"0.0-4.0-1.22","subject_id":"6102e228afa957e9037adbfe","study_id":"6197b3f67c2b5cd3b6d9596a","session_id":"6197b5c666306b3157204d29","condition":"contingent","relevant_dimensions":["antennae","pattern"],"bee_group":{"antennae":"A","wings":"X","pattern":"S","legs":"X"},"bonus":0.4200000000000004},{"rt":6353.300000190735,"stimulus":"bees-with-color/bee-B1SM.svg","response":1,"trial_type":"image-button-response","trial_index":53,"time_elapsed":344818,"internal_node_id":"0.0-4.0-0.23","subject_id":"6102e228afa957e9037adbfe","study_id":"6197b3f67c2b5cd3b6d9596a","session_id":"6197b5c666306b3157204d29","condition":"contingent","relevant_dimensions":["antennae","pattern"],"bee_group":{"antennae":"A","wings":"X","pattern":"S","legs":"X"},"action":"avoid","summary":"bad-avoid","bonus":0.4200000000000004},{"rt":1905.1000003814697,"stimulus":"\n                    <p><b>Action: <em>avoid</em></b></p>\n                    <p>This is the bee that you just saw.</p>\n                    <img src=\"bees-with-color/bee-B1SM.svg\" width=\"200\">\n                    <p><br>Your bonus pay is unchanged, and remains at $0.50.</p>\n            ","response":0,"trial_type":"html-button-response","trial_index":54,"time_elapsed":346728,"internal_node_id":"0.0-4.0-1.23","subject_id":"6102e228afa957e9037adbfe","study_id":"6197b3f67c2b5cd3b6d9596a","session_id":"6197b5c666306b3157204d29","condition":"contingent","relevant_dimensions":["antennae","pattern"],"bee_group":{"antennae":"A","wings":"X","pattern":"S","legs":"X"},"bonus":0.4200000000000004},{"rt":2907.199999809265,"stimulus":"bees-with-color/bee-A1DF.svg","response":1,"trial_type":"image-button-response","trial_index":55,"time_elapsed":349639,"internal_node_id":"0.0-4.0-0.24","subject_id":"6102e228afa957e9037adbfe","study_id":"6197b3f67c2b5cd3b6d9596a","session_id":"6197b5c666306b3157204d29","condition":"contingent","relevant_dimensions":["antennae","pattern"],"bee_group":{"antennae":"A","wings":"X","pattern":"S","legs":"X"},"action":"avoid","summary":"bad-avoid","bonus":0.4200000000000004},{"rt":1150.5,"stimulus":"\n                    <p><b>Action: <em>avoid</em></b></p>\n                    <p>This is the bee that you just saw.</p>\n                    <img src=\"bees-with-color/bee-A1DF.svg\" width=\"200\">\n                    <p><br>Your bonus pay is unchanged, and remains at $0.50.</p>\n            ","response":0,"trial_type":"html-button-response","trial_index":56,"time_elapsed":350792,"internal_node_id":"0.0-4.0-1.24","subject_id":"6102e228afa957e9037adbfe","study_id":"6197b3f67c2b5cd3b6d9596a","session_id":"6197b5c666306b3157204d29","condition":"contingent","relevant_dimensions":["antennae","pattern"],"bee_group":{"antennae":"A","wings":"X","pattern":"S","legs":"X"},"bonus":0.4200000000000004},{"rt":5725.699999809265,"stimulus":"bees-with-color/bee-B1DM.svg","response":0,"trial_type":"image-button-response","trial_index":57,"time_elapsed":356522,"internal_node_id":"0.0-4.0-0.25","subject_id":"6102e228afa957e9037adbfe","study_id":"6197b3f67c2b5cd3b6d9596a","session_id":"6197b5c666306b3157204d29","condition":"contingent","relevant_dimensions":["antennae","pattern"],"bee_group":{"antennae":"A","wings":"X","pattern":"S","legs":"X"},"action":"harvest","summary":"good-harvest","bonus":0.4200000000000004},{"rt":1165.5,"stimulus":"\n                    <p><b>Action: <em>harvest</em></b></p>\n                    <p>This is the bee that you just saw.</p>\n                    <img src=\"bees-with-color/bee-B1DM.svg\" width=\"200\">\n                    <p><span class=\"greenText\"><b>Successful harvest!</b></span><br>Your pay has increased by $0.02. Your bonus pay is now $0.52.</p>\n            ","response":0,"trial_type":"html-button-response","trial_index":58,"time_elapsed":357690,"internal_node_id":"0.0-4.0-1.25","subject_id":"6102e228afa957e9037adbfe","study_id":"6197b3f67c2b5cd3b6d9596a","session_id":"6197b5c666306b3157204d29","condition":"contingent","relevant_dimensions":["antennae","pattern"],"bee_group":{"antennae":"A","wings":"X","pattern":"S","legs":"X"},"bonus":0.4200000000000004},{"rt":3029.4000005722046,"stimulus":"bees-with-color/bee-B2SM.svg","response":0,"trial_type":"image-button-response","trial_index":59,"time_elapsed":360723,"internal_node_id":"0.0-4.0-0.26","subject_id":"6102e228afa957e9037adbfe","study_id":"6197b3f67c2b5cd3b6d9596a","session_id":"6197b5c666306b3157204d29","condition":"contingent","relevant_dimensions":["antennae","pattern"],"bee_group":{"antennae":"A","wings":"X","pattern":"S","legs":"X"},"action":"harvest","summary":"good-harvest","bonus":0.4200000000000004},{"rt":1081.4000005722046,"stimulus":"\n                    <p><b>Action: <em>harvest</em></b></p>\n                    <p>This is the bee that you just saw.</p>\n                    <img src=\"bees-with-color/bee-B2SM.svg\" width=\"200\">\n                    <p><span class=\"greenText\"><b>Successful harvest!</b></span><br>Your pay has increased by $0.02. Your bonus pay is now $0.54.</p>\n            ","response":0,"trial_type":"html-button-response","trial_index":60,"time_elapsed":361809,"internal_node_id":"0.0-4.0-1.26","subject_id":"6102e228afa957e9037adbfe","study_id":"6197b3f67c2b5cd3b6d9596a","session_id":"6197b5c666306b3157204d29","condition":"contingent","relevant_dimensions":["antennae","pattern"],"bee_group":{"antennae":"A","wings":"X","pattern":"S","legs":"X"},"bonus":0.4200000000000004},{"rt":2300.800000190735,"stimulus":"bees-with-color/bee-A2SM.svg","response":1,"trial_type":"image-button-response","trial_index":61,"time_elapsed":364118,"internal_node_id":"0.0-4.0-0.27","subject_id":"6102e228afa957e9037adbfe","study_id":"6197b3f67c2b5cd3b6d9596a","session_id":"6197b5c666306b3157204d29","condition":"contingent","relevant_dimensions":["antennae","pattern"],"bee_group":{"antennae":"A","wings":"X","pattern":"S","legs":"X"},"action":"avoid","summary":"good-avoid","bonus":0.4200000000000004},{"rt":966.1000003814697,"stimulus":"\n                    <p><b>Action: <em>avoid</em></b></p>\n                    <p>This is the bee that you just saw.</p>\n                    <img src=\"bees-with-color/bee-A2SM.svg\" width=\"200\">\n                    <p><br>Your bonus pay is unchanged, and remains at $0.54.</p>\n            ","response":0,"trial_type":"html-button-response","trial_index":62,"time_elapsed":365088,"internal_node_id":"0.0-4.0-1.27","subject_id":"6102e228afa957e9037adbfe","study_id":"6197b3f67c2b5cd3b6d9596a","session_id":"6197b5c666306b3157204d29","condition":"contingent","relevant_dimensions":["antennae","pattern"],"bee_group":{"antennae":"A","wings":"X","pattern":"S","legs":"X"},"bonus":0.4200000000000004},{"rt":4267.099999427795,"stimulus":"bees-with-color/bee-A1SM.svg","response":0,"trial_type":"image-button-response","trial_index":63,"time_elapsed":369358,"internal_node_id":"0.0-4.0-0.28","subject_id":"6102e228afa957e9037adbfe","study_id":"6197b3f67c2b5cd3b6d9596a","session_id":"6197b5c666306b3157204d29","condition":"contingent","relevant_dimensions":["antennae","pattern"],"bee_group":{"antennae":"A","wings":"X","pattern":"S","legs":"X"},"action":"harvest","summary":"bad-harvest","bonus":0.4200000000000004},{"rt":1608.7000007629395,"stimulus":"\n                    <p><b>Action: <em>harvest</em></b></p>\n                    <p>This is the bee that you just saw.</p>\n                    <img src=\"bees-with-color/bee-A1SM.svg\" width=\"200\">\n                    <p><span class=\"redText\">Bad choice, the bee was angry.</span><br><b>You have been stung!</b><br>Your pay has been decreased by $0.10. Your bonus pay is now $0.44.</p>\n            ","response":0,"trial_type":"html-button-response","trial_index":64,"time_elapsed":370971,"internal_node_id":"0.0-4.0-1.28","subject_id":"6102e228afa957e9037adbfe","study_id":"6197b3f67c2b5cd3b6d9596a","session_id":"6197b5c666306b3157204d29","condition":"contingent","relevant_dimensions":["antennae","pattern"],"bee_group":{"antennae":"A","wings":"X","pattern":"S","legs":"X"},"bonus":0.4200000000000004},{"rt":2112.9000005722046,"stimulus":"bees-with-color/bee-B1DF.svg","response":1,"trial_type":"image-button-response","trial_index":65,"time_elapsed":373087,"internal_node_id":"0.0-4.0-0.29","subject_id":"6102e228afa957e9037adbfe","study_id":"6197b3f67c2b5cd3b6d9596a","session_id":"6197b5c666306b3157204d29","condition":"contingent","relevant_dimensions":["antennae","pattern"],"bee_group":{"antennae":"A","wings":"X","pattern":"S","legs":"X"},"action":"avoid","summary":"bad-avoid","bonus":0.4200000000000004},{"rt":1080.3000001907349,"stimulus":"\n                    <p><b>Action: <em>avoid</em></b></p>\n                    <p>This is the bee that you just saw.</p>\n                    <img src=\"bees-with-color/bee-B1DF.svg\" width=\"200\">\n                    <p><br>Your bonus pay is unchanged, and remains at $0.44.</p>\n            ","response":0,"trial_type":"html-button-response","trial_index":66,"time_elapsed":374171,"internal_node_id":"0.0-4.0-1.29","subject_id":"6102e228afa957e9037adbfe","study_id":"6197b3f67c2b5cd3b6d9596a","session_id":"6197b5c666306b3157204d29","condition":"contingent","relevant_dimensions":["antennae","pattern"],"bee_group":{"antennae":"A","wings":"X","pattern":"S","legs":"X"},"bonus":0.4200000000000004},{"rt":1271.6000003814697,"stimulus":"bees-with-color/bee-B2DF.svg","response":1,"trial_type":"image-button-response","trial_index":67,"time_elapsed":375447,"internal_node_id":"0.0-4.0-0.30","subject_id":"6102e228afa957e9037adbfe","study_id":"6197b3f67c2b5cd3b6d9596a","session_id":"6197b5c666306b3157204d29","condition":"contingent","relevant_dimensions":["antennae","pattern"],"bee_group":{"antennae":"A","wings":"X","pattern":"S","legs":"X"},"action":"avoid","summary":"bad-avoid","bonus":0.4200000000000004},{"rt":928.5,"stimulus":"\n                    <p><b>Action: <em>avoid</em></b></p>\n                    <p>This is the bee that you just saw.</p>\n                    <img src=\"bees-with-color/bee-B2DF.svg\" width=\"200\">\n                    <p><br>Your bonus pay is unchanged, and remains at $0.44.</p>\n            ","response":0,"trial_type":"html-button-response","trial_index":68,"time_elapsed":376379,"internal_node_id":"0.0-4.0-1.30","subject_id":"6102e228afa957e9037adbfe","study_id":"6197b3f67c2b5cd3b6d9596a","session_id":"6197b5c666306b3157204d29","condition":"contingent","relevant_dimensions":["antennae","pattern"],"bee_group":{"antennae":"A","wings":"X","pattern":"S","legs":"X"},"bonus":0.4200000000000004},{"rt":3076.199999809265,"stimulus":"bees-with-color/bee-A1DM.svg","response":1,"trial_type":"image-button-response","trial_index":69,"time_elapsed":379459,"internal_node_id":"0.0-4.0-0.31","subject_id":"6102e228afa957e9037adbfe","study_id":"6197b3f67c2b5cd3b6d9596a","session_id":"6197b5c666306b3157204d29","condition":"contingent","relevant_dimensions":["antennae","pattern"],"bee_group":{"antennae":"A","wings":"X","pattern":"S","legs":"X"},"action":"avoid","summary":"bad-avoid","bonus":0.4200000000000004},{"rt":932.1000003814697,"stimulus":"\n                    <p><b>Action: <em>avoid</em></b></p>\n                    <p>This is the bee that you just saw.</p>\n                    <img src=\"bees-with-color/bee-A1DM.svg\" width=\"200\">\n                    <p><br>Your bonus pay is unchanged, and remains at $0.44.</p>\n            ","response":0,"trial_type":"html-button-response","trial_index":70,"time_elapsed":380398,"internal_node_id":"0.0-4.0-1.31","subject_id":"6102e228afa957e9037adbfe","study_id":"6197b3f67c2b5cd3b6d9596a","session_id":"6197b5c666306b3157204d29","condition":"contingent","relevant_dimensions":["antennae","pattern"],"bee_group":{"antennae":"A","wings":"X","pattern":"S","legs":"X"},"bonus":0.4200000000000004},{"rt":2318,"stimulus":"bees-with-color/bee-B1SM.svg","response":1,"trial_type":"image-button-response","trial_index":71,"time_elapsed":382720,"internal_node_id":"0.0-4.0-0.32","subject_id":"6102e228afa957e9037adbfe","study_id":"6197b3f67c2b5cd3b6d9596a","session_id":"6197b5c666306b3157204d29","condition":"contingent","relevant_dimensions":["antennae","pattern"],"bee_group":{"antennae":"A","wings":"X","pattern":"S","legs":"X"},"action":"avoid","summary":"bad-avoid","bonus":0.4200000000000004},{"rt":1196,"stimulus":"\n                    <p><b>Action: <em>avoid</em></b></p>\n                    <p>This is the bee that you just saw.</p>\n                    <img src=\"bees-with-color/bee-B1SM.svg\" width=\"200\">\n                    <p><br>Your bonus pay is unchanged, and remains at $0.44.</p>\n            ","response":0,"trial_type":"html-button-response","trial_index":72,"time_elapsed":383919,"internal_node_id":"0.0-4.0-1.32","subject_id":"6102e228afa957e9037adbfe","study_id":"6197b3f67c2b5cd3b6d9596a","session_id":"6197b5c666306b3157204d29","condition":"contingent","relevant_dimensions":["antennae","pattern"],"bee_group":{"antennae":"A","wings":"X","pattern":"S","legs":"X"},"bonus":0.4200000000000004},{"rt":1905.5,"stimulus":"bees-with-color/bee-B2DM.svg","response":1,"trial_type":"image-button-response","trial_index":73,"time_elapsed":385829,"internal_node_id":"0.0-4.0-0.33","subject_id":"6102e228afa957e9037adbfe","study_id":"6197b3f67c2b5cd3b6d9596a","session_id":"6197b5c666306b3157204d29","condition":"contingent","relevant_dimensions":["antennae","pattern"],"bee_group":{"antennae":"A","wings":"X","pattern":"S","legs":"X"},"action":"avoid","summary":"bad-avoid","bonus":0.4200000000000004},{"rt":813.8000001907349,"stimulus":"\n                    <p><b>Action: <em>avoid</em></b></p>\n                    <p>This is the bee that you just saw.</p>\n                    <img src=\"bees-with-color/bee-B2DM.svg\" width=\"200\">\n                    <p><br>Your bonus pay is unchanged, and remains at $0.44.</p>\n            ","response":0,"trial_type":"html-button-response","trial_index":74,"time_elapsed":386646,"internal_node_id":"0.0-4.0-1.33","subject_id":"6102e228afa957e9037adbfe","study_id":"6197b3f67c2b5cd3b6d9596a","session_id":"6197b5c666306b3157204d29","condition":"contingent","relevant_dimensions":["antennae","pattern"],"bee_group":{"antennae":"A","wings":"X","pattern":"S","legs":"X"},"bonus":0.4200000000000004},{"rt":1241.6000003814697,"stimulus":"bees-with-color/bee-B1SF.svg","response":1,"trial_type":"image-button-response","trial_index":75,"time_elapsed":387891,"internal_node_id":"0.0-4.0-0.34","subject_id":"6102e228afa957e9037adbfe","study_id":"6197b3f67c2b5cd3b6d9596a","session_id":"6197b5c666306b3157204d29","condition":"contingent","relevant_dimensions":["antennae","pattern"],"bee_group":{"antennae":"A","wings":"X","pattern":"S","legs":"X"},"action":"avoid","summary":"bad-avoid","bonus":0.4200000000000004},{"rt":836.7000007629395,"stimulus":"\n                    <p><b>Action: <em>avoid</em></b></p>\n                    <p>This is the bee that you just saw.</p>\n                    <img src=\"bees-with-color/bee-B1SF.svg\" width=\"200\">\n                    <p><br>Your bonus pay is unchanged, and remains at $0.44.</p>\n            ","response":0,"trial_type":"html-button-response","trial_index":76,"time_elapsed":388732,"internal_node_id":"0.0-4.0-1.34","subject_id":"6102e228afa957e9037adbfe","study_id":"6197b3f67c2b5cd3b6d9596a","session_id":"6197b5c666306b3157204d29","condition":"contingent","relevant_dimensions":["antennae","pattern"],"bee_group":{"antennae":"A","wings":"X","pattern":"S","legs":"X"},"bonus":0.4200000000000004},{"rt":3173.800000190735,"stimulus":"bees-with-color/bee-A2DM.svg","response":0,"trial_type":"image-button-response","trial_index":77,"time_elapsed":391910,"internal_node_id":"0.0-4.0-0.35","subject_id":"6102e228afa957e9037adbfe","study_id":"6197b3f67c2b5cd3b6d9596a","session_id":"6197b5c666306b3157204d29","condition":"contingent","relevant_dimensions":["antennae","pattern"],"bee_group":{"antennae":"A","wings":"X","pattern":"S","legs":"X"},"action":"harvest","summary":"good-harvest","bonus":0.4200000000000004},{"rt":1119.1000003814697,"stimulus":"\n                    <p><b>Action: <em>harvest</em></b></p>\n                    <p>This is the bee that you just saw.</p>\n                    <img src=\"bees-with-color/bee-A2DM.svg\" width=\"200\">\n                    <p><span class=\"greenText\"><b>Successful harvest!</b></span><br>Your pay has increased by $0.02. Your bonus pay is now $0.46.</p>\n            ","response":0,"trial_type":"html-button-response","trial_index":78,"time_elapsed":393033,"internal_node_id":"0.0-4.0-1.35","subject_id":"6102e228afa957e9037adbfe","study_id":"6197b3f67c2b5cd3b6d9596a","session_id":"6197b5c666306b3157204d29","condition":"contingent","relevant_dimensions":["antennae","pattern"],"bee_group":{"antennae":"A","wings":"X","pattern":"S","legs":"X"},"bonus":0.4200000000000004},{"rt":1661.1999998092651,"stimulus":"bees-with-color/bee-A1DF.svg","response":1,"trial_type":"image-button-response","trial_index":79,"time_elapsed":394699,"internal_node_id":"0.0-4.0-0.36","subject_id":"6102e228afa957e9037adbfe","study_id":"6197b3f67c2b5cd3b6d9596a","session_id":"6197b5c666306b3157204d29","condition":"contingent","relevant_dimensions":["antennae","pattern"],"bee_group":{"antennae":"A","wings":"X","pattern":"S","legs":"X"},"action":"avoid","summary":"bad-avoid","bonus":0.4200000000000004},{"rt":971.6000003814697,"stimulus":"\n                    <p><b>Action: <em>avoid</em></b></p>\n                    <p>This is the bee that you just saw.</p>\n                    <img src=\"bees-with-color/bee-A1DF.svg\" width=\"200\">\n                    <p><br>Your bonus pay is unchanged, and remains at $0.46.</p>\n            ","response":0,"trial_type":"html-button-response","trial_index":80,"time_elapsed":395675,"internal_node_id":"0.0-4.0-1.36","subject_id":"6102e228afa957e9037adbfe","study_id":"6197b3f67c2b5cd3b6d9596a","session_id":"6197b5c666306b3157204d29","condition":"contingent","relevant_dimensions":["antennae","pattern"],"bee_group":{"antennae":"A","wings":"X","pattern":"S","legs":"X"},"bonus":0.4200000000000004},{"rt":1150.8999996185303,"stimulus":"bees-with-color/bee-A1SF.svg","response":1,"trial_type":"image-button-response","trial_index":81,"time_elapsed":396829,"internal_node_id":"0.0-4.0-0.37","subject_id":"6102e228afa957e9037adbfe","study_id":"6197b3f67c2b5cd3b6d9596a","session_id":"6197b5c666306b3157204d29","condition":"contingent","relevant_dimensions":["antennae","pattern"],"bee_group":{"antennae":"A","wings":"X","pattern":"S","legs":"X"},"action":"avoid","summary":"good-avoid","bonus":0.4200000000000004},{"rt":983.0999994277954,"stimulus":"\n                    <p><b>Action: <em>avoid</em></b></p>\n                    <p>This is the bee that you just saw.</p>\n                    <img src=\"bees-with-color/bee-A1SF.svg\" width=\"200\">\n                    <p><br>Your bonus pay is unchanged, and remains at $0.46.</p>\n            ","response":0,"trial_type":"html-button-response","trial_index":82,"time_elapsed":397814,"internal_node_id":"0.0-4.0-1.37","subject_id":"6102e228afa957e9037adbfe","study_id":"6197b3f67c2b5cd3b6d9596a","session_id":"6197b5c666306b3157204d29","condition":"contingent","relevant_dimensions":["antennae","pattern"],"bee_group":{"antennae":"A","wings":"X","pattern":"S","legs":"X"},"bonus":0.4200000000000004},{"rt":1738.6000003814697,"stimulus":"bees-with-color/bee-B2SF.svg","response":1,"trial_type":"image-button-response","trial_index":83,"time_elapsed":399556,"internal_node_id":"0.0-4.0-0.38","subject_id":"6102e228afa957e9037adbfe","study_id":"6197b3f67c2b5cd3b6d9596a","session_id":"6197b5c666306b3157204d29","condition":"contingent","relevant_dimensions":["antennae","pattern"],"bee_group":{"antennae":"A","wings":"X","pattern":"S","legs":"X"},"action":"avoid","summary":"bad-avoid","bonus":0.4200000000000004},{"rt":883.8000001907349,"stimulus":"\n                    <p><b>Action: <em>avoid</em></b></p>\n                    <p>This is the bee that you just saw.</p>\n                    <img src=\"bees-with-color/bee-B2SF.svg\" width=\"200\">\n                    <p><br>Your bonus pay is unchanged, and remains at $0.46.</p>\n            ","response":0,"trial_type":"html-button-response","trial_index":84,"time_elapsed":400442,"internal_node_id":"0.0-4.0-1.38","subject_id":"6102e228afa957e9037adbfe","study_id":"6197b3f67c2b5cd3b6d9596a","session_id":"6197b5c666306b3157204d29","condition":"contingent","relevant_dimensions":["antennae","pattern"],"bee_group":{"antennae":"A","wings":"X","pattern":"S","legs":"X"},"bonus":0.4200000000000004},{"rt":1525.5,"stimulus":"bees-with-color/bee-A2SF.svg","response":1,"trial_type":"image-button-response","trial_index":85,"time_elapsed":401970,"internal_node_id":"0.0-4.0-0.39","subject_id":"6102e228afa957e9037adbfe","study_id":"6197b3f67c2b5cd3b6d9596a","session_id":"6197b5c666306b3157204d29","condition":"contingent","relevant_dimensions":["antennae","pattern"],"bee_group":{"antennae":"A","wings":"X","pattern":"S","legs":"X"},"action":"avoid","summary":"good-avoid","bonus":0.4200000000000004},{"rt":1036.5999994277954,"stimulus":"\n                    <p><b>Action: <em>avoid</em></b></p>\n                    <p>This is the bee that you just saw.</p>\n                    <img src=\"bees-with-color/bee-A2SF.svg\" width=\"200\">\n                    <p><br>Your bonus pay is unchanged, and remains at $0.46.</p>\n            ","response":0,"trial_type":"html-button-response","trial_index":86,"time_elapsed":403009,"internal_node_id":"0.0-4.0-1.39","subject_id":"6102e228afa957e9037adbfe","study_id":"6197b3f67c2b5cd3b6d9596a","session_id":"6197b5c666306b3157204d29","condition":"contingent","relevant_dimensions":["antennae","pattern"],"bee_group":{"antennae":"A","wings":"X","pattern":"S","legs":"X"},"bonus":0.4200000000000004},{"rt":3954.800000190735,"stimulus":"bees-with-color/bee-A1DM.svg","response":1,"trial_type":"image-button-response","trial_index":87,"time_elapsed":406966,"internal_node_id":"0.0-4.0-0.40","subject_id":"6102e228afa957e9037adbfe","study_id":"6197b3f67c2b5cd3b6d9596a","session_id":"6197b5c666306b3157204d29","condition":"contingent","relevant_dimensions":["antennae","pattern"],"bee_group":{"antennae":"A","wings":"X","pattern":"S","legs":"X"},"action":"avoid","summary":"bad-avoid","bonus":0.4200000000000004},{"rt":1067,"stimulus":"\n                    <p><b>Action: <em>avoid</em></b></p>\n                    <p>This is the bee that you just saw.</p>\n                    <img src=\"bees-with-color/bee-A1DM.svg\" width=\"200\">\n                    <p><br>Your bonus pay is unchanged, and remains at $0.46.</p>\n            ","response":0,"trial_type":"html-button-response","trial_index":88,"time_elapsed":408036,"internal_node_id":"0.0-4.0-1.40","subject_id":"6102e228afa957e9037adbfe","study_id":"6197b3f67c2b5cd3b6d9596a","session_id":"6197b5c666306b3157204d29","condition":"contingent","relevant_dimensions":["antennae","pattern"],"bee_group":{"antennae":"A","wings":"X","pattern":"S","legs":"X"},"bonus":0.4200000000000004},{"rt":2273.6000003814697,"stimulus":"bees-with-color/bee-A2DF.svg","response":1,"trial_type":"image-button-response","trial_index":89,"time_elapsed":410312,"internal_node_id":"0.0-4.0-0.41","subject_id":"6102e228afa957e9037adbfe","study_id":"6197b3f67c2b5cd3b6d9596a","session_id":"6197b5c666306b3157204d29","condition":"contingent","relevant_dimensions":["antennae","pattern"],"bee_group":{"antennae":"A","wings":"X","pattern":"S","legs":"X"},"action":"avoid","summary":"bad-avoid","bonus":0.4200000000000004},{"rt":1043.1999998092651,"stimulus":"\n                    <p><b>Action: <em>avoid</em></b></p>\n                    <p>This is the bee that you just saw.</p>\n                    <img src=\"bees-with-color/bee-A2DF.svg\" width=\"200\">\n                    <p><br>Your bonus pay is unchanged, and remains at $0.46.</p>\n            ","response":0,"trial_type":"html-button-response","trial_index":90,"time_elapsed":411359,"internal_node_id":"0.0-4.0-1.41","subject_id":"6102e228afa957e9037adbfe","study_id":"6197b3f67c2b5cd3b6d9596a","session_id":"6197b5c666306b3157204d29","condition":"contingent","relevant_dimensions":["antennae","pattern"],"bee_group":{"antennae":"A","wings":"X","pattern":"S","legs":"X"},"bonus":0.4200000000000004},{"rt":2151.2000007629395,"stimulus":"bees-with-color/bee-B2SM.svg","response":1,"trial_type":"image-button-response","trial_index":91,"time_elapsed":413513,"internal_node_id":"0.0-4.0-0.42","subject_id":"6102e228afa957e9037adbfe","study_id":"6197b3f67c2b5cd3b6d9596a","session_id":"6197b5c666306b3157204d29","condition":"contingent","relevant_dimensions":["antennae","pattern"],"bee_group":{"antennae":"A","wings":"X","pattern":"S","legs":"X"},"action":"avoid","summary":"bad-avoid","bonus":0.4200000000000004},{"rt":859.5,"stimulus":"\n                    <p><b>Action: <em>avoid</em></b></p>\n                    <p>This is the bee that you just saw.</p>\n                    <img src=\"bees-with-color/bee-B2SM.svg\" width=\"200\">\n                    <p><br>Your bonus pay is unchanged, and remains at $0.46.</p>\n            ","response":0,"trial_type":"html-button-response","trial_index":92,"time_elapsed":414376,"internal_node_id":"0.0-4.0-1.42","subject_id":"6102e228afa957e9037adbfe","study_id":"6197b3f67c2b5cd3b6d9596a","session_id":"6197b5c666306b3157204d29","condition":"contingent","relevant_dimensions":["antennae","pattern"],"bee_group":{"antennae":"A","wings":"X","pattern":"S","legs":"X"},"bonus":0.4200000000000004},{"rt":2006.8999996185303,"stimulus":"bees-with-color/bee-A1SM.svg","response":1,"trial_type":"image-button-response","trial_index":93,"time_elapsed":416385,"internal_node_id":"0.0-4.0-0.43","subject_id":"6102e228afa957e9037adbfe","study_id":"6197b3f67c2b5cd3b6d9596a","session_id":"6197b5c666306b3157204d29","condition":"contingent","relevant_dimensions":["antennae","pattern"],"bee_group":{"antennae":"A","wings":"X","pattern":"S","legs":"X"},"action":"avoid","summary":"good-avoid","bonus":0.4200000000000004},{"rt":967.1999998092651,"stimulus":"\n                    <p><b>Action: <em>avoid</em></b></p>\n                    <p>This is the bee that you just saw.</p>\n                    <img src=\"bees-with-color/bee-A1SM.svg\" width=\"200\">\n                    <p><br>Your bonus pay is unchanged, and remains at $0.46.</p>\n            ","response":0,"trial_type":"html-button-response","trial_index":94,"time_elapsed":417355,"internal_node_id":"0.0-4.0-1.43","subject_id":"6102e228afa957e9037adbfe","study_id":"6197b3f67c2b5cd3b6d9596a","session_id":"6197b5c666306b3157204d29","condition":"contingent","relevant_dimensions":["antennae","pattern"],"bee_group":{"antennae":"A","wings":"X","pattern":"S","legs":"X"},"bonus":0.4200000000000004},{"rt":1196.4000005722046,"stimulus":"bees-with-color/bee-B1DF.svg","response":1,"trial_type":"image-button-response","trial_index":95,"time_elapsed":418555,"internal_node_id":"0.0-4.0-0.44","subject_id":"6102e228afa957e9037adbfe","study_id":"6197b3f67c2b5cd3b6d9596a","session_id":"6197b5c666306b3157204d29","condition":"contingent","relevant_dimensions":["antennae","pattern"],"bee_group":{"antennae":"A","wings":"X","pattern":"S","legs":"X"},"action":"avoid","summary":"bad-avoid","bonus":0.4200000000000004},{"rt":998,"stimulus":"\n                    <p><b>Action: <em>avoid</em></b></p>\n                    <p>This is the bee that you just saw.</p>\n                    <img src=\"bees-with-color/bee-B1DF.svg\" width=\"200\">\n                    <p><br>Your bonus pay is unchanged, and remains at $0.46.</p>\n            ","response":0,"trial_type":"html-button-response","trial_index":96,"time_elapsed":419555,"internal_node_id":"0.0-4.0-1.44","subject_id":"6102e228afa957e9037adbfe","study_id":"6197b3f67c2b5cd3b6d9596a","session_id":"6197b5c666306b3157204d29","condition":"contingent","relevant_dimensions":["antennae","pattern"],"bee_group":{"antennae":"A","wings":"X","pattern":"S","legs":"X"},"bonus":0.4200000000000004},{"rt":2564,"stimulus":"bees-with-color/bee-A2SM.svg","response":1,"trial_type":"image-button-response","trial_index":97,"time_elapsed":422122,"internal_node_id":"0.0-4.0-0.45","subject_id":"6102e228afa957e9037adbfe","study_id":"6197b3f67c2b5cd3b6d9596a","session_id":"6197b5c666306b3157204d29","condition":"contingent","relevant_dimensions":["antennae","pattern"],"bee_group":{"antennae":"A","wings":"X","pattern":"S","legs":"X"},"action":"avoid","summary":"good-avoid","bonus":0.4200000000000004},{"rt":1540.4000005722046,"stimulus":"\n                    <p><b>Action: <em>avoid</em></b></p>\n                    <p>This is the bee that you just saw.</p>\n                    <img src=\"bees-with-color/bee-A2SM.svg\" width=\"200\">\n                    <p><br>Your bonus pay is unchanged, and remains at $0.46.</p>\n            ","response":0,"trial_type":"html-button-response","trial_index":98,"time_elapsed":423666,"internal_node_id":"0.0-4.0-1.45","subject_id":"6102e228afa957e9037adbfe","study_id":"6197b3f67c2b5cd3b6d9596a","session_id":"6197b5c666306b3157204d29","condition":"contingent","relevant_dimensions":["antennae","pattern"],"bee_group":{"antennae":"A","wings":"X","pattern":"S","legs":"X"},"bonus":0.4200000000000004},{"rt":1425.4000005722046,"stimulus":"bees-with-color/bee-B2DF.svg","response":1,"trial_type":"image-button-response","trial_index":99,"time_elapsed":425095,"internal_node_id":"0.0-4.0-0.46","subject_id":"6102e228afa957e9037adbfe","study_id":"6197b3f67c2b5cd3b6d9596a","session_id":"6197b5c666306b3157204d29","condition":"contingent","relevant_dimensions":["antennae","pattern"],"bee_group":{"antennae":"A","wings":"X","pattern":"S","legs":"X"},"action":"avoid","summary":"bad-avoid","bonus":0.4200000000000004},{"rt":1363.3999996185303,"stimulus":"\n                    <p><b>Action: <em>avoid</em></b></p>\n                    <p>This is the bee that you just saw.</p>\n                    <img src=\"bees-with-color/bee-B2DF.svg\" width=\"200\">\n                    <p><br>Your bonus pay is unchanged, and remains at $0.46.</p>\n            ","response":0,"trial_type":"html-button-response","trial_index":100,"time_elapsed":426462,"internal_node_id":"0.0-4.0-1.46","subject_id":"6102e228afa957e9037adbfe","study_id":"6197b3f67c2b5cd3b6d9596a","session_id":"6197b5c666306b3157204d29","condition":"contingent","relevant_dimensions":["antennae","pattern"],"bee_group":{"antennae":"A","wings":"X","pattern":"S","legs":"X"},"bonus":0.4200000000000004},{"rt":1952.3000001907349,"stimulus":"bees-with-color/bee-B1DM.svg","response":1,"trial_type":"image-button-response","trial_index":101,"time_elapsed":428418,"internal_node_id":"0.0-4.0-0.47","subject_id":"6102e228afa957e9037adbfe","study_id":"6197b3f67c2b5cd3b6d9596a","session_id":"6197b5c666306b3157204d29","condition":"contingent","relevant_dimensions":["antennae","pattern"],"bee_group":{"antennae":"A","wings":"X","pattern":"S","legs":"X"},"action":"avoid","summary":"bad-avoid","bonus":0.4200000000000004},{"rt":1607.3999996185303,"stimulus":"\n                    <p><b>Action: <em>avoid</em></b></p>\n                    <p>This is the bee that you just saw.</p>\n                    <img src=\"bees-with-color/bee-B1DM.svg\" width=\"200\">\n                    <p><br>Your bonus pay is unchanged, and remains at $0.46.</p>\n            ","response":0,"trial_type":"html-button-response","trial_index":102,"time_elapsed":430028,"internal_node_id":"0.0-4.0-1.47","subject_id":"6102e228afa957e9037adbfe","study_id":"6197b3f67c2b5cd3b6d9596a","session_id":"6197b5c666306b3157204d29","condition":"contingent","relevant_dimensions":["antennae","pattern"],"bee_group":{"antennae":"A","wings":"X","pattern":"S","legs":"X"},"bonus":0.4200000000000004},{"rt":2654.3999996185303,"stimulus":"bees-with-color/bee-A1DM.svg","response":1,"trial_type":"image-button-response","trial_index":103,"time_elapsed":432688,"internal_node_id":"0.0-4.0-0.48","subject_id":"6102e228afa957e9037adbfe","study_id":"6197b3f67c2b5cd3b6d9596a","session_id":"6197b5c666306b3157204d29","condition":"contingent","relevant_dimensions":["antennae","pattern"],"bee_group":{"antennae":"A","wings":"X","pattern":"S","legs":"X"},"action":"avoid","summary":"bad-avoid","bonus":0.4200000000000004},{"rt":1028.2000007629395,"stimulus":"\n                    <p><b>Action: <em>avoid</em></b></p>\n                    <p>This is the bee that you just saw.</p>\n                    <img src=\"bees-with-color/bee-A1DM.svg\" width=\"200\">\n                    <p><br>Your bonus pay is unchanged, and remains at $0.46.</p>\n            ","response":0,"trial_type":"html-button-response","trial_index":104,"time_elapsed":433719,"internal_node_id":"0.0-4.0-1.48","subject_id":"6102e228afa957e9037adbfe","study_id":"6197b3f67c2b5cd3b6d9596a","session_id":"6197b5c666306b3157204d29","condition":"contingent","relevant_dimensions":["antennae","pattern"],"bee_group":{"antennae":"A","wings":"X","pattern":"S","legs":"X"},"bonus":0.4200000000000004},{"rt":2578.699999809265,"stimulus":"bees-with-color/bee-A2DF.svg","response":1,"trial_type":"image-button-response","trial_index":105,"time_elapsed":436301,"internal_node_id":"0.0-4.0-0.49","subject_id":"6102e228afa957e9037adbfe","study_id":"6197b3f67c2b5cd3b6d9596a","session_id":"6197b5c666306b3157204d29","condition":"contingent","relevant_dimensions":["antennae","pattern"],"bee_group":{"antennae":"A","wings":"X","pattern":"S","legs":"X"},"action":"avoid","summary":"bad-avoid","bonus":0.4200000000000004},{"rt":1204.9000005722046,"stimulus":"\n                    <p><b>Action: <em>avoid</em></b></p>\n                    <p>This is the bee that you just saw.</p>\n                    <img src=\"bees-with-color/bee-A2DF.svg\" width=\"200\">\n                    <p><br>Your bonus pay is unchanged, and remains at $0.46.</p>\n            ","response":0,"trial_type":"html-button-response","trial_index":106,"time_elapsed":437509,"internal_node_id":"0.0-4.0-1.49","subject_id":"6102e228afa957e9037adbfe","study_id":"6197b3f67c2b5cd3b6d9596a","session_id":"6197b5c666306b3157204d29","condition":"contingent","relevant_dimensions":["antennae","pattern"],"bee_group":{"antennae":"A","wings":"X","pattern":"S","legs":"X"},"bonus":0.4200000000000004},{"rt":1123.5,"stimulus":"bees-with-color/bee-B2DF.svg","response":1,"trial_type":"image-button-response","trial_index":107,"time_elapsed":438638,"internal_node_id":"0.0-4.0-0.50","subject_id":"6102e228afa957e9037adbfe","study_id":"6197b3f67c2b5cd3b6d9596a","session_id":"6197b5c666306b3157204d29","condition":"contingent","relevant_dimensions":["antennae","pattern"],"bee_group":{"antennae":"A","wings":"X","pattern":"S","legs":"X"},"action":"avoid","summary":"bad-avoid","bonus":0.4200000000000004},{"rt":984.5,"stimulus":"\n                    <p><b>Action: <em>avoid</em></b></p>\n                    <p>This is the bee that you just saw.</p>\n                    <img src=\"bees-with-color/bee-B2DF.svg\" width=\"200\">\n                    <p><br>Your bonus pay is unchanged, and remains at $0.46.</p>\n            ","response":0,"trial_type":"html-button-response","trial_index":108,"time_elapsed":439626,"internal_node_id":"0.0-4.0-1.50","subject_id":"6102e228afa957e9037adbfe","study_id":"6197b3f67c2b5cd3b6d9596a","session_id":"6197b5c666306b3157204d29","condition":"contingent","relevant_dimensions":["antennae","pattern"],"bee_group":{"antennae":"A","wings":"X","pattern":"S","legs":"X"},"bonus":0.4200000000000004},{"rt":1101.0999994277954,"stimulus":"bees-with-color/bee-B1SF.svg","response":1,"trial_type":"image-button-response","trial_index":109,"time_elapsed":440731,"internal_node_id":"0.0-4.0-0.51","subject_id":"6102e228afa957e9037adbfe","study_id":"6197b3f67c2b5cd3b6d9596a","session_id":"6197b5c666306b3157204d29","condition":"contingent","relevant_dimensions":["antennae","pattern"],"bee_group":{"antennae":"A","wings":"X","pattern":"S","legs":"X"},"action":"avoid","summary":"bad-avoid","bonus":0.4200000000000004},{"rt":1035.8000001907349,"stimulus":"\n                    <p><b>Action: <em>avoid</em></b></p>\n                    <p>This is the bee that you just saw.</p>\n                    <img src=\"bees-with-color/bee-B1SF.svg\" width=\"200\">\n                    <p><br>Your bonus pay is unchanged, and remains at $0.46.</p>\n            ","response":0,"trial_type":"html-button-response","trial_index":110,"time_elapsed":441770,"internal_node_id":"0.0-4.0-1.51","subject_id":"6102e228afa957e9037adbfe","study_id":"6197b3f67c2b5cd3b6d9596a","session_id":"6197b5c666306b3157204d29","condition":"contingent","relevant_dimensions":["antennae","pattern"],"bee_group":{"antennae":"A","wings":"X","pattern":"S","legs":"X"},"bonus":0.4200000000000004},{"rt":1670,"stimulus":"bees-with-color/bee-A1SF.svg","response":1,"trial_type":"image-button-response","trial_index":111,"time_elapsed":443443,"internal_node_id":"0.0-4.0-0.52","subject_id":"6102e228afa957e9037adbfe","study_id":"6197b3f67c2b5cd3b6d9596a","session_id":"6197b5c666306b3157204d29","condition":"contingent","relevant_dimensions":["antennae","pattern"],"bee_group":{"antennae":"A","wings":"X","pattern":"S","legs":"X"},"action":"avoid","summary":"good-avoid","bonus":0.4200000000000004},{"rt":1622.5,"stimulus":"\n                    <p><b>Action: <em>avoid</em></b></p>\n                    <p>This is the bee that you just saw.</p>\n                    <img src=\"bees-with-color/bee-A1SF.svg\" width=\"200\">\n                    <p><br>Your bonus pay is unchanged, and remains at $0.46.</p>\n            ","response":0,"trial_type":"html-button-response","trial_index":112,"time_elapsed":445070,"internal_node_id":"0.0-4.0-1.52","subject_id":"6102e228afa957e9037adbfe","study_id":"6197b3f67c2b5cd3b6d9596a","session_id":"6197b5c666306b3157204d29","condition":"contingent","relevant_dimensions":["antennae","pattern"],"bee_group":{"antennae":"A","wings":"X","pattern":"S","legs":"X"},"bonus":0.4200000000000004},{"rt":1577.8000001907349,"stimulus":"bees-with-color/bee-B2DM.svg","response":1,"trial_type":"image-button-response","trial_index":113,"time_elapsed":446651,"internal_node_id":"0.0-4.0-0.53","subject_id":"6102e228afa957e9037adbfe","study_id":"6197b3f67c2b5cd3b6d9596a","session_id":"6197b5c666306b3157204d29","condition":"contingent","relevant_dimensions":["antennae","pattern"],"bee_group":{"antennae":"A","wings":"X","pattern":"S","legs":"X"},"action":"avoid","summary":"bad-avoid","bonus":0.4200000000000004},{"rt":897.8000001907349,"stimulus":"\n                    <p><b>Action: <em>avoid</em></b></p>\n                    <p>This is the bee that you just saw.</p>\n                    <img src=\"bees-with-color/bee-B2DM.svg\" width=\"200\">\n                    <p><br>Your bonus pay is unchanged, and remains at $0.46.</p>\n            ","response":0,"trial_type":"html-button-response","trial_index":114,"time_elapsed":447552,"internal_node_id":"0.0-4.0-1.53","subject_id":"6102e228afa957e9037adbfe","study_id":"6197b3f67c2b5cd3b6d9596a","session_id":"6197b5c666306b3157204d29","condition":"contingent","relevant_dimensions":["antennae","pattern"],"bee_group":{"antennae":"A","wings":"X","pattern":"S","legs":"X"},"bonus":0.4200000000000004},{"rt":1425.1000003814697,"stimulus":"bees-with-color/bee-B2SM.svg","response":1,"trial_type":"image-button-response","trial_index":115,"time_elapsed":448980,"internal_node_id":"0.0-4.0-0.54","subject_id":"6102e228afa957e9037adbfe","study_id":"6197b3f67c2b5cd3b6d9596a","session_id":"6197b5c666306b3157204d29","condition":"contingent","relevant_dimensions":["antennae","pattern"],"bee_group":{"antennae":"A","wings":"X","pattern":"S","legs":"X"},"action":"avoid","summary":"bad-avoid","bonus":0.4200000000000004},{"rt":860,"stimulus":"\n                    <p><b>Action: <em>avoid</em></b></p>\n                    <p>This is the bee that you just saw.</p>\n                    <img src=\"bees-with-color/bee-B2SM.svg\" width=\"200\">\n                    <p><br>Your bonus pay is unchanged, and remains at $0.46.</p>\n            ","response":0,"trial_type":"html-button-response","trial_index":116,"time_elapsed":449844,"internal_node_id":"0.0-4.0-1.54","subject_id":"6102e228afa957e9037adbfe","study_id":"6197b3f67c2b5cd3b6d9596a","session_id":"6197b5c666306b3157204d29","condition":"contingent","relevant_dimensions":["antennae","pattern"],"bee_group":{"antennae":"A","wings":"X","pattern":"S","legs":"X"},"bonus":0.4200000000000004},{"rt":1271.3999996185303,"stimulus":"bees-with-color/bee-A2SF.svg","response":1,"trial_type":"image-button-response","trial_index":117,"time_elapsed":451119,"internal_node_id":"0.0-4.0-0.55","subject_id":"6102e228afa957e9037adbfe","study_id":"6197b3f67c2b5cd3b6d9596a","session_id":"6197b5c666306b3157204d29","condition":"contingent","relevant_dimensions":["antennae","pattern"],"bee_group":{"antennae":"A","wings":"X","pattern":"S","legs":"X"},"action":"avoid","summary":"good-avoid","bonus":0.4200000000000004},{"rt":974.3000001907349,"stimulus":"\n                    <p><b>Action: <em>avoid</em></b></p>\n                    <p>This is the bee that you just saw.</p>\n                    <img src=\"bees-with-color/bee-A2SF.svg\" width=\"200\">\n                    <p><br>Your bonus pay is unchanged, and remains at $0.46.</p>\n            ","response":0,"trial_type":"html-button-response","trial_index":118,"time_elapsed":452097,"internal_node_id":"0.0-4.0-1.55","subject_id":"6102e228afa957e9037adbfe","study_id":"6197b3f67c2b5cd3b6d9596a","session_id":"6197b5c666306b3157204d29","condition":"contingent","relevant_dimensions":["antennae","pattern"],"bee_group":{"antennae":"A","wings":"X","pattern":"S","legs":"X"},"bonus":0.4200000000000004},{"rt":1272.5,"stimulus":"bees-with-color/bee-B1SM.svg","response":1,"trial_type":"image-button-response","trial_index":119,"time_elapsed":453372,"internal_node_id":"0.0-4.0-0.56","subject_id":"6102e228afa957e9037adbfe","study_id":"6197b3f67c2b5cd3b6d9596a","session_id":"6197b5c666306b3157204d29","condition":"contingent","relevant_dimensions":["antennae","pattern"],"bee_group":{"antennae":"A","wings":"X","pattern":"S","legs":"X"},"action":"avoid","summary":"bad-avoid","bonus":0.4200000000000004},{"rt":2051.7999992370605,"stimulus":"\n                    <p><b>Action: <em>avoid</em></b></p>\n                    <p>This is the bee that you just saw.</p>\n                    <img src=\"bees-with-color/bee-B1SM.svg\" width=\"200\">\n                    <p><br>Your bonus pay is unchanged, and remains at $0.46.</p>\n            ","response":0,"trial_type":"html-button-response","trial_index":120,"time_elapsed":455428,"internal_node_id":"0.0-4.0-1.56","subject_id":"6102e228afa957e9037adbfe","study_id":"6197b3f67c2b5cd3b6d9596a","session_id":"6197b5c666306b3157204d29","condition":"contingent","relevant_dimensions":["antennae","pattern"],"bee_group":{"antennae":"A","wings":"X","pattern":"S","legs":"X"},"bonus":0.4200000000000004},{"rt":1241,"stimulus":"bees-with-color/bee-A1DF.svg","response":1,"trial_type":"image-button-response","trial_index":121,"time_elapsed":456672,"internal_node_id":"0.0-4.0-0.57","subject_id":"6102e228afa957e9037adbfe","study_id":"6197b3f67c2b5cd3b6d9596a","session_id":"6197b5c666306b3157204d29","condition":"contingent","relevant_dimensions":["antennae","pattern"],"bee_group":{"antennae":"A","wings":"X","pattern":"S","legs":"X"},"action":"avoid","summary":"bad-avoid","bonus":0.4200000000000004},{"rt":1279.9000005722046,"stimulus":"\n                    <p><b>Action: <em>avoid</em></b></p>\n                    <p>This is the bee that you just saw.</p>\n                    <img src=\"bees-with-color/bee-A1DF.svg\" width=\"200\">\n                    <p><br>Your bonus pay is unchanged, and remains at $0.46.</p>\n            ","response":0,"trial_type":"html-button-response","trial_index":122,"time_elapsed":457956,"internal_node_id":"0.0-4.0-1.57","subject_id":"6102e228afa957e9037adbfe","study_id":"6197b3f67c2b5cd3b6d9596a","session_id":"6197b5c666306b3157204d29","condition":"contingent","relevant_dimensions":["antennae","pattern"],"bee_group":{"antennae":"A","wings":"X","pattern":"S","legs":"X"},"bonus":0.4200000000000004},{"rt":2435.4000005722046,"stimulus":"bees-with-color/bee-A1SM.svg","response":1,"trial_type":"image-button-response","trial_index":123,"time_elapsed":460395,"internal_node_id":"0.0-4.0-0.58","subject_id":"6102e228afa957e9037adbfe","study_id":"6197b3f67c2b5cd3b6d9596a","session_id":"6197b5c666306b3157204d29","condition":"contingent","relevant_dimensions":["antennae","pattern"],"bee_group":{"antennae":"A","wings":"X","pattern":"S","legs":"X"},"action":"avoid","summary":"good-avoid","bonus":0.4200000000000004},{"rt":902.1000003814697,"stimulus":"\n                    <p><b>Action: <em>avoid</em></b></p>\n                    <p>This is the bee that you just saw.</p>\n                    <img src=\"bees-with-color/bee-A1SM.svg\" width=\"200\">\n                    <p><br>Your bonus pay is unchanged, and remains at $0.46.</p>\n            ","response":0,"trial_type":"html-button-response","trial_index":124,"time_elapsed":461301,"internal_node_id":"0.0-4.0-1.58","subject_id":"6102e228afa957e9037adbfe","study_id":"6197b3f67c2b5cd3b6d9596a","session_id":"6197b5c666306b3157204d29","condition":"contingent","relevant_dimensions":["antennae","pattern"],"bee_group":{"antennae":"A","wings":"X","pattern":"S","legs":"X"},"bonus":0.4200000000000004},{"rt":1990.2999992370605,"stimulus":"bees-with-color/bee-A2SM.svg","response":0,"trial_type":"image-button-response","trial_index":125,"time_elapsed":463295,"internal_node_id":"0.0-4.0-0.59","subject_id":"6102e228afa957e9037adbfe","study_id":"6197b3f67c2b5cd3b6d9596a","session_id":"6197b5c666306b3157204d29","condition":"contingent","relevant_dimensions":["antennae","pattern"],"bee_group":{"antennae":"A","wings":"X","pattern":"S","legs":"X"},"action":"harvest","summary":"bad-harvest","bonus":0.4200000000000004},{"rt":1684.3000001907349,"stimulus":"\n                    <p><b>Action: <em>harvest</em></b></p>\n                    <p>This is the bee that you just saw.</p>\n                    <img src=\"bees-with-color/bee-A2SM.svg\" width=\"200\">\n                    <p><span class=\"redText\">Bad choice, the bee was angry.</span><br><b>You have been stung!</b><br>Your pay has been decreased by $0.10. Your bonus pay is now $0.36.</p>\n            ","response":0,"trial_type":"html-button-response","trial_index":126,"time_elapsed":464983,"internal_node_id":"0.0-4.0-1.59","subject_id":"6102e228afa957e9037adbfe","study_id":"6197b3f67c2b5cd3b6d9596a","session_id":"6197b5c666306b3157204d29","condition":"contingent","relevant_dimensions":["antennae","pattern"],"bee_group":{"antennae":"A","wings":"X","pattern":"S","legs":"X"},"bonus":0.4200000000000004},{"rt":2257.1000003814697,"stimulus":"bees-with-color/bee-A2DM.svg","response":0,"trial_type":"image-button-response","trial_index":127,"time_elapsed":467243,"internal_node_id":"0.0-4.0-0.60","subject_id":"6102e228afa957e9037adbfe","study_id":"6197b3f67c2b5cd3b6d9596a","session_id":"6197b5c666306b3157204d29","condition":"contingent","relevant_dimensions":["antennae","pattern"],"bee_group":{"antennae":"A","wings":"X","pattern":"S","legs":"X"},"action":"harvest","summary":"good-harvest","bonus":0.4200000000000004},{"rt":1012.3000001907349,"stimulus":"\n                    <p><b>Action: <em>harvest</em></b></p>\n                    <p>This is the bee that you just saw.</p>\n                    <img src=\"bees-with-color/bee-A2DM.svg\" width=\"200\">\n                    <p><span class=\"greenText\"><b>Successful harvest!</b></span><br>Your pay has increased by $0.02. Your bonus pay is now $0.38.</p>\n            ","response":0,"trial_type":"html-button-response","trial_index":128,"time_elapsed":468259,"internal_node_id":"0.0-4.0-1.60","subject_id":"6102e228afa957e9037adbfe","study_id":"6197b3f67c2b5cd3b6d9596a","session_id":"6197b5c666306b3157204d29","condition":"contingent","relevant_dimensions":["antennae","pattern"],"bee_group":{"antennae":"A","wings":"X","pattern":"S","legs":"X"},"bonus":0.4200000000000004},{"rt":1333,"stimulus":"bees-with-color/bee-B1DF.svg","response":1,"trial_type":"image-button-response","trial_index":129,"time_elapsed":469596,"internal_node_id":"0.0-4.0-0.61","subject_id":"6102e228afa957e9037adbfe","study_id":"6197b3f67c2b5cd3b6d9596a","session_id":"6197b5c666306b3157204d29","condition":"contingent","relevant_dimensions":["antennae","pattern"],"bee_group":{"antennae":"A","wings":"X","pattern":"S","legs":"X"},"action":"avoid","summary":"bad-avoid","bonus":0.4200000000000004},{"rt":1111.6000003814697,"stimulus":"\n                    <p><b>Action: <em>avoid</em></b></p>\n                    <p>This is the bee that you just saw.</p>\n                    <img src=\"bees-with-color/bee-B1DF.svg\" width=\"200\">\n                    <p><br>Your bonus pay is unchanged, and remains at $0.38.</p>\n            ","response":0,"trial_type":"html-button-response","trial_index":130,"time_elapsed":470711,"internal_node_id":"0.0-4.0-1.61","subject_id":"6102e228afa957e9037adbfe","study_id":"6197b3f67c2b5cd3b6d9596a","session_id":"6197b5c666306b3157204d29","condition":"contingent","relevant_dimensions":["antennae","pattern"],"bee_group":{"antennae":"A","wings":"X","pattern":"S","legs":"X"},"bonus":0.4200000000000004},{"rt":1875.3999996185303,"stimulus":"bees-with-color/bee-B2SF.svg","response":1,"trial_type":"image-button-response","trial_index":131,"time_elapsed":472591,"internal_node_id":"0.0-4.0-0.62","subject_id":"6102e228afa957e9037adbfe","study_id":"6197b3f67c2b5cd3b6d9596a","session_id":"6197b5c666306b3157204d29","condition":"contingent","relevant_dimensions":["antennae","pattern"],"bee_group":{"antennae":"A","wings":"X","pattern":"S","legs":"X"},"action":"avoid","summary":"bad-avoid","bonus":0.4200000000000004},{"rt":1378.3999996185303,"stimulus":"\n                    <p><b>Action: <em>avoid</em></b></p>\n                    <p>This is the bee that you just saw.</p>\n                    <img src=\"bees-with-color/bee-B2SF.svg\" width=\"200\">\n                    <p><br>Your bonus pay is unchanged, and remains at $0.38.</p>\n            ","response":0,"trial_type":"html-button-response","trial_index":132,"time_elapsed":473973,"internal_node_id":"0.0-4.0-1.62","subject_id":"6102e228afa957e9037adbfe","study_id":"6197b3f67c2b5cd3b6d9596a","session_id":"6197b5c666306b3157204d29","condition":"contingent","relevant_dimensions":["antennae","pattern"],"bee_group":{"antennae":"A","wings":"X","pattern":"S","legs":"X"},"bonus":0.4200000000000004},{"rt":1858.6999998092651,"stimulus":"bees-with-color/bee-B1DM.svg","response":1,"trial_type":"image-button-response","trial_index":133,"time_elapsed":475836,"internal_node_id":"0.0-4.0-0.63","subject_id":"6102e228afa957e9037adbfe","study_id":"6197b3f67c2b5cd3b6d9596a","session_id":"6197b5c666306b3157204d29","condition":"contingent","relevant_dimensions":["antennae","pattern"],"bee_group":{"antennae":"A","wings":"X","pattern":"S","legs":"X"},"action":"avoid","summary":"bad-avoid","bonus":0.4200000000000004},{"rt":1261.6999998092651,"stimulus":"\n                    <p><b>Action: <em>avoid</em></b></p>\n                    <p>This is the bee that you just saw.</p>\n                    <img src=\"bees-with-color/bee-B1DM.svg\" width=\"200\">\n                    <p><br>Your bonus pay is unchanged, and remains at $0.38.</p>\n            ","response":0,"trial_type":"html-button-response","trial_index":134,"time_elapsed":477104,"internal_node_id":"0.0-4.0-1.63","subject_id":"6102e228afa957e9037adbfe","study_id":"6197b3f67c2b5cd3b6d9596a","session_id":"6197b5c666306b3157204d29","condition":"contingent","relevant_dimensions":["antennae","pattern"],"bee_group":{"antennae":"A","wings":"X","pattern":"S","legs":"X"},"bonus":0.4200000000000004},{"rt":5424.5,"stimulus":"You have completed the first part of this experiment.<br><br>You will now begin a shorter second part, in which you will receive no feedback.<br>The same rules regarding bonus pay apply.<br><br>Press any key to begin.","response":" ","trial_type":"html-keyboard-response","trial_index":135,"time_elapsed":482533,"internal_node_id":"0.0-5.0","subject_id":"6102e228afa957e9037adbfe","study_id":"6197b3f67c2b5cd3b6d9596a","session_id":"6197b5c666306b3157204d29","condition":"contingent","relevant_dimensions":["antennae","pattern"],"bee_group":{"antennae":"A","wings":"X","pattern":"S","legs":"X"},"bonus":0.4200000000000004},{"rt":1759.3999996185303,"stimulus":"bees-with-color/bee-B1SF.svg","response":1,"trial_type":"image-button-response","trial_index":136,"time_elapsed":484325,"internal_node_id":"0.0-6.0-0.0","subject_id":"6102e228afa957e9037adbfe","study_id":"6197b3f67c2b5cd3b6d9596a","session_id":"6197b5c666306b3157204d29","condition":"contingent","relevant_dimensions":["antennae","pattern"],"bee_group":{"antennae":"A","wings":"X","pattern":"S","legs":"X"},"bonus":0.4200000000000004},{"rt":1553.5999994277954,"stimulus":"bees-with-color/bee-A2SM.svg","response":1,"trial_type":"image-button-response","trial_index":137,"time_elapsed":485882,"internal_node_id":"0.0-6.0-0.1","subject_id":"6102e228afa957e9037adbfe","study_id":"6197b3f67c2b5cd3b6d9596a","session_id":"6197b5c666306b3157204d29","condition":"contingent","relevant_dimensions":["antennae","pattern"],"bee_group":{"antennae":"A","wings":"X","pattern":"S","legs":"X"},"bonus":0.4200000000000004},{"rt":2906.6000003814697,"stimulus":"bees-with-color/bee-B2SF.svg","response":1,"trial_type":"image-button-response","trial_index":138,"time_elapsed":488792,"internal_node_id":"0.0-6.0-0.2","subject_id":"6102e228afa957e9037adbfe","study_id":"6197b3f67c2b5cd3b6d9596a","session_id":"6197b5c666306b3157204d29","condition":"contingent","relevant_dimensions":["antennae","pattern"],"bee_group":{"antennae":"A","wings":"X","pattern":"S","legs":"X"},"bonus":0.4200000000000004},{"rt":929.1000003814697,"stimulus":"bees-with-color/bee-A1SF.svg","response":1,"trial_type":"image-button-response","trial_index":139,"time_elapsed":489725,"internal_node_id":"0.0-6.0-0.3","subject_id":"6102e228afa957e9037adbfe","study_id":"6197b3f67c2b5cd3b6d9596a","session_id":"6197b5c666306b3157204d29","condition":"contingent","relevant_dimensions":["antennae","pattern"],"bee_group":{"antennae":"A","wings":"X","pattern":"S","legs":"X"},"bonus":0.4200000000000004},{"rt":1721.5999994277954,"stimulus":"bees-with-color/bee-A1DM.svg","response":1,"trial_type":"image-button-response","trial_index":140,"time_elapsed":491450,"internal_node_id":"0.0-6.0-0.4","subject_id":"6102e228afa957e9037adbfe","study_id":"6197b3f67c2b5cd3b6d9596a","session_id":"6197b5c666306b3157204d29","condition":"contingent","relevant_dimensions":["antennae","pattern"],"bee_group":{"antennae":"A","wings":"X","pattern":"S","legs":"X"},"bonus":0.4200000000000004},{"rt":1523.6000003814697,"stimulus":"bees-with-color/bee-A2DF.svg","response":1,"trial_type":"image-button-response","trial_index":141,"time_elapsed":492978,"internal_node_id":"0.0-6.0-0.5","subject_id":"6102e228afa957e9037adbfe","study_id":"6197b3f67c2b5cd3b6d9596a","session_id":"6197b5c666306b3157204d29","condition":"contingent","relevant_dimensions":["antennae","pattern"],"bee_group":{"antennae":"A","wings":"X","pattern":"S","legs":"X"},"bonus":0.4200000000000004},{"rt":1042.8999996185303,"stimulus":"bees-with-color/bee-B2DF.svg","response":1,"trial_type":"image-button-response","trial_index":142,"time_elapsed":494024,"internal_node_id":"0.0-6.0-0.6","subject_id":"6102e228afa957e9037adbfe","study_id":"6197b3f67c2b5cd3b6d9596a","session_id":"6197b5c666306b3157204d29","condition":"contingent","relevant_dimensions":["antennae","pattern"],"bee_group":{"antennae":"A","wings":"X","pattern":"S","legs":"X"},"bonus":0.4200000000000004},{"rt":2142.199999809265,"stimulus":"bees-with-color/bee-B2DM.svg","response":1,"trial_type":"image-button-response","trial_index":143,"time_elapsed":496171,"internal_node_id":"0.0-6.0-0.7","subject_id":"6102e228afa957e9037adbfe","study_id":"6197b3f67c2b5cd3b6d9596a","session_id":"6197b5c666306b3157204d29","condition":"contingent","relevant_dimensions":["antennae","pattern"],"bee_group":{"antennae":"A","wings":"X","pattern":"S","legs":"X"},"bonus":0.4200000000000004},{"rt":934.5,"stimulus":"bees-with-color/bee-B2SM.svg","response":1,"trial_type":"image-button-response","trial_index":144,"time_elapsed":497111,"internal_node_id":"0.0-6.0-0.8","subject_id":"6102e228afa957e9037adbfe","study_id":"6197b3f67c2b5cd3b6d9596a","session_id":"6197b5c666306b3157204d29","condition":"contingent","relevant_dimensions":["antennae","pattern"],"bee_group":{"antennae":"A","wings":"X","pattern":"S","legs":"X"},"bonus":0.4200000000000004},{"rt":1042.1999998092651,"stimulus":"bees-with-color/bee-A1DF.svg","response":1,"trial_type":"image-button-response","trial_index":145,"time_elapsed":498157,"internal_node_id":"0.0-6.0-0.9","subject_id":"6102e228afa957e9037adbfe","study_id":"6197b3f67c2b5cd3b6d9596a","session_id":"6197b5c666306b3157204d29","condition":"contingent","relevant_dimensions":["antennae","pattern"],"bee_group":{"antennae":"A","wings":"X","pattern":"S","legs":"X"},"bonus":0.4200000000000004},{"rt":965.5999994277954,"stimulus":"bees-with-color/bee-A2SF.svg","response":1,"trial_type":"image-button-response","trial_index":146,"time_elapsed":499126,"internal_node_id":"0.0-6.0-0.10","subject_id":"6102e228afa957e9037adbfe","study_id":"6197b3f67c2b5cd3b6d9596a","session_id":"6197b5c666306b3157204d29","condition":"contingent","relevant_dimensions":["antennae","pattern"],"bee_group":{"antennae":"A","wings":"X","pattern":"S","legs":"X"},"bonus":0.4200000000000004},{"rt":936,"stimulus":"bees-with-color/bee-B1SM.svg","response":1,"trial_type":"image-button-response","trial_index":147,"time_elapsed":500066,"internal_node_id":"0.0-6.0-0.11","subject_id":"6102e228afa957e9037adbfe","study_id":"6197b3f67c2b5cd3b6d9596a","session_id":"6197b5c666306b3157204d29","condition":"contingent","relevant_dimensions":["antennae","pattern"],"bee_group":{"antennae":"A","wings":"X","pattern":"S","legs":"X"},"bonus":0.4200000000000004},{"rt":790.1999998092651,"stimulus":"bees-with-color/bee-A1SM.svg","response":1,"trial_type":"image-button-response","trial_index":148,"time_elapsed":500860,"internal_node_id":"0.0-6.0-0.12","subject_id":"6102e228afa957e9037adbfe","study_id":"6197b3f67c2b5cd3b6d9596a","session_id":"6197b5c666306b3157204d29","condition":"contingent","relevant_dimensions":["antennae","pattern"],"bee_group":{"antennae":"A","wings":"X","pattern":"S","legs":"X"},"bonus":0.4200000000000004},{"rt":1554.5999994277954,"stimulus":"bees-with-color/bee-A2DM.svg","response":0,"trial_type":"image-button-response","trial_index":149,"time_elapsed":502419,"internal_node_id":"0.0-6.0-0.13","subject_id":"6102e228afa957e9037adbfe","study_id":"6197b3f67c2b5cd3b6d9596a","session_id":"6197b5c666306b3157204d29","condition":"contingent","relevant_dimensions":["antennae","pattern"],"bee_group":{"antennae":"A","wings":"X","pattern":"S","legs":"X"},"bonus":0.4200000000000004},{"rt":1051,"stimulus":"bees-with-color/bee-B1DM.svg","response":1,"trial_type":"image-button-response","trial_index":150,"time_elapsed":503474,"internal_node_id":"0.0-6.0-0.14","subject_id":"6102e228afa957e9037adbfe","study_id":"6197b3f67c2b5cd3b6d9596a","session_id":"6197b5c666306b3157204d29","condition":"contingent","relevant_dimensions":["antennae","pattern"],"bee_group":{"antennae":"A","wings":"X","pattern":"S","legs":"X"},"bonus":0.4200000000000004},{"rt":894.6999998092651,"stimulus":"bees-with-color/bee-B1DF.svg","response":1,"trial_type":"image-button-response","trial_index":151,"time_elapsed":504374,"internal_node_id":"0.0-6.0-0.15","subject_id":"6102e228afa957e9037adbfe","study_id":"6197b3f67c2b5cd3b6d9596a","session_id":"6197b5c666306b3157204d29","condition":"contingent","relevant_dimensions":["antennae","pattern"],"bee_group":{"antennae":"A","wings":"X","pattern":"S","legs":"X"},"bonus":0.4200000000000004},{"rt":944,"stimulus":"bees-with-color/bee-A1SM.svg","response":1,"trial_type":"image-button-response","trial_index":152,"time_elapsed":505321,"internal_node_id":"0.0-6.0-0.16","subject_id":"6102e228afa957e9037adbfe","study_id":"6197b3f67c2b5cd3b6d9596a","session_id":"6197b5c666306b3157204d29","condition":"contingent","relevant_dimensions":["antennae","pattern"],"bee_group":{"antennae":"A","wings":"X","pattern":"S","legs":"X"},"bonus":0.4200000000000004},{"rt":738.1999998092651,"stimulus":"bees-with-color/bee-A1SF.svg","response":1,"trial_type":"image-button-response","trial_index":153,"time_elapsed":506063,"internal_node_id":"0.0-6.0-0.17","subject_id":"6102e228afa957e9037adbfe","study_id":"6197b3f67c2b5cd3b6d9596a","session_id":"6197b5c666306b3157204d29","condition":"contingent","relevant_dimensions":["antennae","pattern"],"bee_group":{"antennae":"A","wings":"X","pattern":"S","legs":"X"},"bonus":0.4200000000000004},{"rt":925.2000007629395,"stimulus":"bees-with-color/bee-B2SM.svg","response":1,"trial_type":"image-button-response","trial_index":154,"time_elapsed":506994,"internal_node_id":"0.0-6.0-0.18","subject_id":"6102e228afa957e9037adbfe","study_id":"6197b3f67c2b5cd3b6d9596a","session_id":"6197b5c666306b3157204d29","condition":"contingent","relevant_dimensions":["antennae","pattern"],"bee_group":{"antennae":"A","wings":"X","pattern":"S","legs":"X"},"bonus":0.4200000000000004},{"rt":1493.5,"stimulus":"bees-with-color/bee-A1DM.svg","response":1,"trial_type":"image-button-response","trial_index":155,"time_elapsed":508491,"internal_node_id":"0.0-6.0-0.19","subject_id":"6102e228afa957e9037adbfe","study_id":"6197b3f67c2b5cd3b6d9596a","session_id":"6197b5c666306b3157204d29","condition":"contingent","relevant_dimensions":["antennae","pattern"],"bee_group":{"antennae":"A","wings":"X","pattern":"S","legs":"X"},"bonus":0.4200000000000004},{"rt":776.3999996185303,"stimulus":"bees-with-color/bee-B1SM.svg","response":1,"trial_type":"image-button-response","trial_index":156,"time_elapsed":509273,"internal_node_id":"0.0-6.0-0.20","subject_id":"6102e228afa957e9037adbfe","study_id":"6197b3f67c2b5cd3b6d9596a","session_id":"6197b5c666306b3157204d29","condition":"contingent","relevant_dimensions":["antennae","pattern"],"bee_group":{"antennae":"A","wings":"X","pattern":"S","legs":"X"},"bonus":0.4200000000000004},{"rt":764.5999994277954,"stimulus":"bees-with-color/bee-B1SF.svg","response":1,"trial_type":"image-button-response","trial_index":157,"time_elapsed":510041,"internal_node_id":"0.0-6.0-0.21","subject_id":"6102e228afa957e9037adbfe","study_id":"6197b3f67c2b5cd3b6d9596a","session_id":"6197b5c666306b3157204d29","condition":"contingent","relevant_dimensions":["antennae","pattern"],"bee_group":{"antennae":"A","wings":"X","pattern":"S","legs":"X"},"bonus":0.4200000000000004},{"rt":707.3000001907349,"stimulus":"bees-with-color/bee-B1DF.svg","response":1,"trial_type":"image-button-response","trial_index":158,"time_elapsed":510753,"internal_node_id":"0.0-6.0-0.22","subject_id":"6102e228afa957e9037adbfe","study_id":"6197b3f67c2b5cd3b6d9596a","session_id":"6197b5c666306b3157204d29","condition":"contingent","relevant_dimensions":["antennae","pattern"],"bee_group":{"antennae":"A","wings":"X","pattern":"S","legs":"X"},"bonus":0.4200000000000004},{"rt":2714,"stimulus":"bees-with-color/bee-A2DF.svg","response":1,"trial_type":"image-button-response","trial_index":159,"time_elapsed":513473,"internal_node_id":"0.0-6.0-0.23","subject_id":"6102e228afa957e9037adbfe","study_id":"6197b3f67c2b5cd3b6d9596a","session_id":"6197b5c666306b3157204d29","condition":"contingent","relevant_dimensions":["antennae","pattern"],"bee_group":{"antennae":"A","wings":"X","pattern":"S","legs":"X"},"bonus":0.4200000000000004},{"rt":712.3000001907349,"stimulus":"bees-with-color/bee-A2SF.svg","response":1,"trial_type":"image-button-response","trial_index":160,"time_elapsed":514189,"internal_node_id":"0.0-6.0-0.24","subject_id":"6102e228afa957e9037adbfe","study_id":"6197b3f67c2b5cd3b6d9596a","session_id":"6197b5c666306b3157204d29","condition":"contingent","relevant_dimensions":["antennae","pattern"],"bee_group":{"antennae":"A","wings":"X","pattern":"S","legs":"X"},"bonus":0.4200000000000004},{"rt":890.6000003814697,"stimulus":"bees-with-color/bee-B1DM.svg","response":1,"trial_type":"image-button-response","trial_index":161,"time_elapsed":515083,"internal_node_id":"0.0-6.0-0.25","subject_id":"6102e228afa957e9037adbfe","study_id":"6197b3f67c2b5cd3b6d9596a","session_id":"6197b5c666306b3157204d29","condition":"contingent","relevant_dimensions":["antennae","pattern"],"bee_group":{"antennae":"A","wings":"X","pattern":"S","legs":"X"},"bonus":0.4200000000000004},{"rt":5317.400000572205,"stimulus":"bees-with-color/bee-A2DM.svg","response":0,"trial_type":"image-button-response","trial_index":162,"time_elapsed":520406,"internal_node_id":"0.0-6.0-0.26","subject_id":"6102e228afa957e9037adbfe","study_id":"6197b3f67c2b5cd3b6d9596a","session_id":"6197b5c666306b3157204d29","condition":"contingent","relevant_dimensions":["antennae","pattern"],"bee_group":{"antennae":"A","wings":"X","pattern":"S","legs":"X"},"bonus":0.4200000000000004},{"rt":1240.7999992370605,"stimulus":"bees-with-color/bee-B2DF.svg","response":1,"trial_type":"image-button-response","trial_index":163,"time_elapsed":521651,"internal_node_id":"0.0-6.0-0.27","subject_id":"6102e228afa957e9037adbfe","study_id":"6197b3f67c2b5cd3b6d9596a","session_id":"6197b5c666306b3157204d29","condition":"contingent","relevant_dimensions":["antennae","pattern"],"bee_group":{"antennae":"A","wings":"X","pattern":"S","legs":"X"},"bonus":0.4200000000000004},{"rt":720.8999996185303,"stimulus":"bees-with-color/bee-B2SF.svg","response":1,"trial_type":"image-button-response","trial_index":164,"time_elapsed":522377,"internal_node_id":"0.0-6.0-0.28","subject_id":"6102e228afa957e9037adbfe","study_id":"6197b3f67c2b5cd3b6d9596a","session_id":"6197b5c666306b3157204d29","condition":"contingent","relevant_dimensions":["antennae","pattern"],"bee_group":{"antennae":"A","wings":"X","pattern":"S","legs":"X"},"bonus":0.4200000000000004},{"rt":1104,"stimulus":"bees-with-color/bee-A1DF.svg","response":1,"trial_type":"image-button-response","trial_index":165,"time_elapsed":523484,"internal_node_id":"0.0-6.0-0.29","subject_id":"6102e228afa957e9037adbfe","study_id":"6197b3f67c2b5cd3b6d9596a","session_id":"6197b5c666306b3157204d29","condition":"contingent","relevant_dimensions":["antennae","pattern"],"bee_group":{"antennae":"A","wings":"X","pattern":"S","legs":"X"},"bonus":0.4200000000000004},{"rt":1110.5,"stimulus":"bees-with-color/bee-B2DM.svg","response":1,"trial_type":"image-butto