[{"success":true,"trial_type":"fullscreen","trial_index":0,"time_elapsed":34749,"internal_node_id":"0.0-0.0","subject_id":"5df2235d5a34251266ea645e","study_id":"6197b3f67c2b5cd3b6d9596a","session_id":"619be31ebc53d924303684a2","condition":"contingent","relevant_dimensions":["antennae","legs"],"bee_group":{"antennae":"A","wings":"X","pattern":"X","legs":"M"},"bonus":1.6800000000000013},{"success":true,"timeout":false,"failed_images":[],"failed_audio":[],"failed_video":[],"trial_type":"preload","trial_index":1,"time_elapsed":37438,"internal_node_id":"0.0-1.0","subject_id":"5df2235d5a34251266ea645e","study_id":"6197b3f67c2b5cd3b6d9596a","session_id":"619be31ebc53d924303684a2","condition":"contingent","relevant_dimensions":["antennae","legs"],"bee_group":{"antennae":"A","wings":"X","pattern":"X","legs":"M"},"bonus":1.6800000000000013},{"rt":1977,"stimulus":"Welcome! Press any key to begin.","response":"arrowup","trial_type":"html-keyboard-response","trial_index":2,"time_elapsed":39416,"internal_node_id":"0.0-2.0","subject_id":"5df2235d5a34251266ea645e","study_id":"6197b3f67c2b5cd3b6d9596a","session_id":"619be31ebc53d924303684a2","condition":"contingent","relevant_dimensions":["antennae","legs"],"bee_group":{"antennae":"A","wings":"X","pattern":"X","legs":"M"},"bonus":1.6800000000000013},{"view_history":[{"page_index":0,"viewing_time":6852.199999988079},{"page_index":1,"viewing_time":22187.69999998808},{"page_index":2,"viewing_time":26035.30000001192},{"page_index":3,"viewing_time":21675.90000000596},{"page_index":4,"viewing_time":10396.699999988079},{"page_index":5,"viewing_time":15945.59999999404},{"page_index":6,"viewing_time":12925.800000011921},{"page_index":7,"viewing_time":7465.9000000059605},{"page_index":6,"viewing_time":3083.0999999940395},{"page_index":7,"viewing_time":3535.5},{"page_index":8,"viewing_time":5289.800000011921},{"page_index":9,"viewing_time":4294.199999988079},{"page_index":10,"viewing_time":3470.4000000059605},{"page_index":11,"viewing_time":16027.5},{"page_index":12,"viewing_time":8725.59999999404},{"page_index":13,"viewing_time":1043},{"page_index":14,"viewing_time":2157.5}],"rt":171112.09999999404,"trial_type":"instructions","trial_index":3,"time_elapsed":210529,"internal_node_id":"0.0-3.0-0.0","subject_id":"5df2235d5a34251266ea645e","study_id":"6197b3f67c2b5cd3b6d9596a","session_id":"619be31ebc53d924303684a2","condition":"contingent","relevant_dimensions":["antennae","legs"],"bee_group":{"antennae":"A","wings":"X","pattern":"X","legs":"M"},"bonus":1.6800000000000013},{"rt":12497.800000011921,"response":{"Q0":["Two or six legs","Stripes or spots on body","Single or double wings","Antennae or no antennae"]},"question_order":[0],"trial_type":"survey-multi-select","trial_index":4,"time_elapsed":223030,"internal_node_id":"0.0-3.0-1.0","subject_id":"5df2235d5a34251266ea645e","study_id":"6197b3f67c2b5cd3b6d9596a","session_id":"619be31ebc53d924303684a2","condition":"contingent","relevant_dimensions":["antennae","legs"],"bee_group":{"antennae":"A","wings":"X","pattern":"X","legs":"M"},"correct":true,"bonus":1.6800000000000013},{"rt":30213.79999998212,"response":{"Q1":"No.","Q2":"Based on the four features of the bee.","Q3":"You do not learn if it was friendly or dangerous, and do not alter your bonus."},"question_order":[0,1,2],"trial_type":"survey-multi-choice","trial_index":5,"time_elapsed":253246,"internal_node_id":"0.0-3.0-2.0","subject_id":"5df2235d5a34251266ea645e","study_id":"6197b3f67c2b5cd3b6d9596a","session_id":"619be31ebc53d924303684a2","condition":"contingent","relevant_dimensions":["antennae","legs"],"bee_group":{"antennae":"A","wings":"X","pattern":"X","legs":"M"},"correct":true,"bonus":1.6800000000000013},{"rt":2179.100000023842,"stimulus":"<p>Congrats, you got everything right<br>When you're ready, click the button below to continue to the experiment.</p>","response":0,"trial_type":"html-button-response","trial_index":6,"time_elapsed":255428,"internal_node_id":"0.0-3.0-3.0","subject_id":"5df2235d5a34251266ea645e","study_id":"6197b3f67c2b5cd3b6d9596a","session_id":"619be31ebc53d924303684a2","condition":"contingent","relevant_dimensions":["antennae","legs"],"bee_group":{"antennae":"A","wings":"X","pattern":"X","legs":"M"},"bonus":1.6800000000000013},{"rt":9060.699999988079,"stimulus":"bees-with-color/bee-A2SM.svg","response":0,"trial_type":"image-button-response","trial_index":7,"time_elapsed":264490,"internal_node_id":"0.0-4.0-0.0","subject_id":"5df2235d5a34251266ea645e","study_id":"6197b3f67c2b5cd3b6d9596a","session_id":"619be31ebc53d924303684a2","condition":"contingent","relevant_dimensions":["antennae","legs"],"bee_group":{"antennae":"A","wings":"X","pattern":"X","legs":"M"},"action":"harvest","summary":"bad-harvest","bonus":1.6800000000000013},{"rt":22893.5,"stimulus":"\n                    <p><b>Action: <em>harvest</em></b></p>\n                    <p>This is the bee that you just saw.</p>\n                    <img src=\"bees-with-color/bee-A2SM.svg\" width=\"200\">\n                    <p><span class=\"redText\">Bad choice, the bee was angry.</span><br><b>You have been stung!</b><br>Your pay has been decreased by $0.10. Your bonus pay is now $0.44.</p>\n            ","response":0,"trial_type":"html-button-response","trial_index":8,"time_elapsed":287386,"internal_node_id":"0.0-4.0-1.0","subject_id":"5df2235d5a34251266ea645e","study_id":"6197b3f67c2b5cd3b6d9596a","session_id":"619be31ebc53d924303684a2","condition":"contingent","relevant_dimensions":["antennae","legs"],"bee_group":{"antennae":"A","wings":"X","pattern":"X","legs":"M"},"bonus":1.6800000000000013},{"rt":7984.4000000059605,"stimulus":"bees-with-color/bee-A2SF.svg","response":0,"trial_type":"image-button-response","trial_index":9,"time_elapsed":295372,"internal_node_id":"0.0-4.0-0.1","subject_id":"5df2235d5a34251266ea645e","study_id":"6197b3f67c2b5cd3b6d9596a","session_id":"619be31ebc53d924303684a2","condition":"contingent","relevant_dimensions":["antennae","legs"],"bee_group":{"antennae":"A","wings":"X","pattern":"X","legs":"M"},"action":"harvest","summary":"good-harvest","bonus":1.6800000000000013},{"rt":29437.30000001192,"stimulus":"\n                    <p><b>Action: <em>harvest</em></b></p>\n                    <p>This is the bee that you just saw.</p>\n                    <img src=\"bees-with-color/bee-A2SF.svg\" width=\"200\">\n                    <p><span class=\"greenText\"><b>Successful harvest!</b></span><br>Your pay has increased by $0.02. Your bonus pay is now $0.46.</p>\n            ","response":0,"trial_type":"html-button-response","trial_index":10,"time_elapsed":324810,"internal_node_id":"0.0-4.0-1.1","subject_id":"5df2235d5a34251266ea645e","study_id":"6197b3f67c2b5cd3b6d9596a","session_id":"619be31ebc53d924303684a2","condition":"contingent","relevant_dimensions":["antennae","legs"],"bee_group":{"antennae":"A","wings":"X","pattern":"X","legs":"M"},"bonus":1.6800000000000013},{"rt":4186,"stimulus":"bees-with-color/bee-B1DM.svg","response":0,"trial_type":"image-button-response","trial_index":11,"time_elapsed":328998,"internal_node_id":"0.0-4.0-0.2","subject_id":"5df2235d5a34251266ea645e","study_id":"6197b3f67c2b5cd3b6d9596a","session_id":"619be31ebc53d924303684a2","condition":"contingent","relevant_dimensions":["antennae","legs"],"bee_group":{"antennae":"A","wings":"X","pattern":"X","legs":"M"},"action":"harvest","summary":"good-harvest","bonus":1.6800000000000013},{"rt":17069,"stimulus":"\n                    <p><b>Action: <em>harvest</em></b></p>\n                    <p>This is the bee that you just saw.</p>\n                    <img src=\"bees-with-color/bee-B1DM.svg\" width=\"200\">\n                    <p><span class=\"greenText\"><b>Successful harvest!</b></span><br>Your pay has increased by $0.02. Your bonus pay is now $0.48.</p>\n            ","response":0,"trial_type":"html-button-response","trial_index":12,"time_elapsed":346068,"internal_node_id":"0.0-4.0-1.2","subject_id":"5df2235d5a34251266ea645e","study_id":"6197b3f67c2b5cd3b6d9596a","session_id":"619be31ebc53d924303684a2","condition":"contingent","relevant_dimensions":["antennae","legs"],"bee_group":{"antennae":"A","wings":"X","pattern":"X","legs":"M"},"bonus":1.6800000000000013},{"rt":3796.0999999940395,"stimulus":"bees-with-color/bee-B2DM.svg","response":0,"trial_type":"image-button-response","trial_index":13,"time_elapsed":349865,"internal_node_id":"0.0-4.0-0.3","subject_id":"5df2235d5a34251266ea645e","study_id":"6197b3f67c2b5cd3b6d9596a","session_id":"619be31ebc53d924303684a2","condition":"contingent","relevant_dimensions":["antennae","legs"],"bee_group":{"antennae":"A","wings":"X","pattern":"X","legs":"M"},"action":"harvest","summary":"good-harvest","bonus":1.6800000000000013},{"rt":25657.5,"stimulus":"\n                    <p><b>Action: <em>harvest</em></b></p>\n                    <p>This is the bee that you just saw.</p>\n                    <img src=\"bees-with-color/bee-B2DM.svg\" width=\"200\">\n                    <p><span class=\"greenText\"><b>Successful harvest!</b></span><br>Your pay has increased by $0.02. Your bonus pay is now $0.50.</p>\n            ","response":0,"trial_type":"html-button-response","trial_index":14,"time_elapsed":375524,"internal_node_id":"0.0-4.0-1.3","subject_id":"5df2235d5a34251266ea645e","study_id":"6197b3f67c2b5cd3b6d9596a","session_id":"619be31ebc53d924303684a2","condition":"contingent","relevant_dimensions":["antennae","legs"],"bee_group":{"antennae":"A","wings":"X","pattern":"X","legs":"M"},"bonus":1.6800000000000013},{"rt":6359.800000011921,"stimulus":"bees-with-color/bee-B1SM.svg","response":0,"trial_type":"image-button-response","trial_index":15,"time_elapsed":381884,"internal_node_id":"0.0-4.0-0.4","subject_id":"5df2235d5a34251266ea645e","study_id":"6197b3f67c2b5cd3b6d9596a","session_id":"619be31ebc53d924303684a2","condition":"contingent","relevant_dimensions":["antennae","legs"],"bee_group":{"antennae":"A","wings":"X","pattern":"X","legs":"M"},"action":"harvest","summary":"good-harvest","bonus":1.6800000000000013},{"rt":13647.299999982119,"stimulus":"\n                    <p><b>Action: <em>harvest</em></b></p>\n                    <p>This is the bee that you just saw.</p>\n                    <img src=\"bees-with-color/bee-B1SM.svg\" width=\"200\">\n                    <p><span class=\"greenText\"><b>Successful harvest!</b></span><br>Your pay has increased by $0.02. Your bonus pay is now $0.52.</p>\n            ","response":0,"trial_type":"html-button-response","trial_index":16,"time_elapsed":395533,"internal_node_id":"0.0-4.0-1.4","subject_id":"5df2235d5a34251266ea645e","study_id":"6197b3f67c2b5cd3b6d9596a","session_id":"619be31ebc53d924303684a2","condition":"contingent","relevant_dimensions":["antennae","legs"],"bee_group":{"antennae":"A","wings":"X","pattern":"X","legs":"M"},"bonus":1.6800000000000013},{"rt":4190.4000000059605,"stimulus":"bees-with-color/bee-B1SF.svg","response":0,"trial_type":"image-button-response","trial_index":17,"time_elapsed":399724,"internal_node_id":"0.0-4.0-0.5","subject_id":"5df2235d5a34251266ea645e","study_id":"6197b3f67c2b5cd3b6d9596a","session_id":"619be31ebc53d924303684a2","condition":"contingent","relevant_dimensions":["antennae","legs"],"bee_group":{"antennae":"A","wings":"X","pattern":"X","legs":"M"},"action":"harvest","summary":"good-harvest","bonus":1.6800000000000013},{"rt":14017.5,"stimulus":"\n                    <p><b>Action: <em>harvest</em></b></p>\n                    <p>This is the bee that you just saw.</p>\n                    <img src=\"bees-with-color/bee-B1SF.svg\" width=\"200\">\n                    <p><span class=\"greenText\"><b>Successful harvest!</b></span><br>Your pay has increased by $0.02. Your bonus pay is now $0.54.</p>\n            ","response":0,"trial_type":"html-button-response","trial_index":18,"time_elapsed":413742,"internal_node_id":"0.0-4.0-1.5","subject_id":"5df2235d5a34251266ea645e","study_id":"6197b3f67c2b5cd3b6d9596a","session_id":"619be31ebc53d924303684a2","condition":"contingent","relevant_dimensions":["antennae","legs"],"bee_group":{"antennae":"A","wings":"X","pattern":"X","legs":"M"},"bonus":1.6800000000000013},{"rt":3299.2999999821186,"stimulus":"bees-with-color/bee-B2SF.svg","response":0,"trial_type":"image-button-response","trial_index":19,"time_elapsed":417043,"internal_node_id":"0.0-4.0-0.6","subject_id":"5df2235d5a34251266ea645e","study_id":"6197b3f67c2b5cd3b6d9596a","session_id":"619be31ebc53d924303684a2","condition":"contingent","relevant_dimensions":["antennae","legs"],"bee_group":{"antennae":"A","wings":"X","pattern":"X","legs":"M"},"action":"harvest","summary":"good-harvest","bonus":1.6800000000000013},{"rt":20925.70000001788,"stimulus":"\n                    <p><b>Action: <em>harvest</em></b></p>\n                    <p>This is the bee that you just saw.</p>\n                    <img src=\"bees-with-color/bee-B2SF.svg\" width=\"200\">\n                    <p><span class=\"greenText\"><b>Successful harvest!</b></span><br>Your pay has increased by $0.02. Your bonus pay is now $0.56.</p>\n            ","response":0,"trial_type":"html-button-response","trial_index":20,"time_elapsed":437970,"internal_node_id":"0.0-4.0-1.6","subject_id":"5df2235d5a34251266ea645e","study_id":"6197b3f67c2b5cd3b6d9596a","session_id":"619be31ebc53d924303684a2","condition":"contingent","relevant_dimensions":["antennae","legs"],"bee_group":{"antennae":"A","wings":"X","pattern":"X","legs":"M"},"bonus":1.6800000000000013},{"rt":9478,"stimulus":"bees-with-color/bee-A2DM.svg","response":0,"trial_type":"image-button-response","trial_index":21,"time_elapsed":447449,"internal_node_id":"0.0-4.0-0.7","subject_id":"5df2235d5a34251266ea645e","study_id":"6197b3f67c2b5cd3b6d9596a","session_id":"619be31ebc53d924303684a2","condition":"contingent","relevant_dimensions":["antennae","legs"],"bee_group":{"antennae":"A","wings":"X","pattern":"X","legs":"M"},"action":"harvest","summary":"bad-harvest","bonus":1.6800000000000013},{"rt":18102.70000001788,"stimulus":"\n                    <p><b>Action: <em>harvest</em></b></p>\n                    <p>This is the bee that you just saw.</p>\n                    <img src=\"bees-with-color/bee-A2DM.svg\" width=\"200\">\n                    <p><span class=\"redText\">Bad choice, the bee was angry.</span><br><b>You have been stung!</b><br>Your pay has been decreased by $0.10. Your bonus pay is now $0.46.</p>\n            ","response":0,"trial_type":"html-button-response","trial_index":22,"time_elapsed":465553,"internal_node_id":"0.0-4.0-1.7","subject_id":"5df2235d5a34251266ea645e","study_id":"6197b3f67c2b5cd3b6d9596a","session_id":"619be31ebc53d924303684a2","condition":"contingent","relevant_dimensions":["antennae","legs"],"bee_group":{"antennae":"A","wings":"X","pattern":"X","legs":"M"},"bonus":1.6800000000000013},{"rt":2321,"stimulus":"bees-with-color/bee-A1DM.svg","response":0,"trial_type":"image-button-response","trial_index":23,"time_elapsed":467875,"internal_node_id":"0.0-4.0-0.8","subject_id":"5df2235d5a34251266ea645e","study_id":"6197b3f67c2b5cd3b6d9596a","session_id":"619be31ebc53d924303684a2","condition":"contingent","relevant_dimensions":["antennae","legs"],"bee_group":{"antennae":"A","wings":"X","pattern":"X","legs":"M"},"action":"harvest","summary":"bad-harvest","bonus":1.6800000000000013},{"rt":18215.59999999404,"stimulus":"\n                    <p><b>Action: <em>harvest</em></b></p>\n                    <p>This is the bee that you just saw.</p>\n                    <img src=\"bees-with-color/bee-A1DM.svg\" width=\"200\">\n                    <p><span class=\"redText\">Bad choice, the bee was angry.</span><br><b>You have been stung!</b><br>Your pay has been decreased by $0.10. Your bonus pay is now $0.36.</p>\n            ","response":0,"trial_type":"html-button-response","trial_index":24,"time_elapsed":486092,"internal_node_id":"0.0-4.0-1.8","subject_id":"5df2235d5a34251266ea645e","study_id":"6197b3f67c2b5cd3b6d9596a","session_id":"619be31ebc53d924303684a2","condition":"contingent","relevant_dimensions":["antennae","legs"],"bee_group":{"antennae":"A","wings":"X","pattern":"X","legs":"M"},"bonus":1.6800000000000013},{"rt":1627.800000011921,"stimulus":"bees-with-color/bee-A1DF.svg","response":0,"trial_type":"image-button-response","trial_index":25,"time_elapsed":487721,"internal_node_id":"0.0-4.0-0.9","subject_id":"5df2235d5a34251266ea645e","study_id":"6197b3f67c2b5cd3b6d9596a","session_id":"619be31ebc53d924303684a2","condition":"contingent","relevant_dimensions":["antennae","legs"],"bee_group":{"antennae":"A","wings":"X","pattern":"X","legs":"M"},"action":"harvest","summary":"good-harvest","bonus":1.6800000000000013},{"rt":5177.100000023842,"stimulus":"\n                    <p><b>Action: <em>harvest</em></b></p>\n                    <p>This is the bee that you just saw.</p>\n                    <img src=\"bees-with-color/bee-A1DF.svg\" width=\"200\">\n                    <p><span class=\"greenText\"><b>Successful harvest!</b></span><br>Your pay has increased by $0.02. Your bonus pay is now $0.38.</p>\n            ","response":0,"trial_type":"html-button-response","trial_index":26,"time_elapsed":492899,"internal_node_id":"0.0-4.0-1.9","subject_id":"5df2235d5a34251266ea645e","study_id":"6197b3f67c2b5cd3b6d9596a","session_id":"619be31ebc53d924303684a2","condition":"contingent","relevant_dimensions":["antennae","legs"],"bee_group":{"antennae":"A","wings":"X","pattern":"X","legs":"M"},"bonus":1.6800000000000013},{"rt":3073,"stimulus":"bees-with-color/bee-B2SM.svg","response":0,"trial_type":"image-button-response","trial_index":27,"time_elapsed":495973,"internal_node_id":"0.0-4.0-0.10","subject_id":"5df2235d5a34251266ea645e","study_id":"6197b3f67c2b5cd3b6d9596a","session_id":"619be31ebc53d924303684a2","condition":"contingent","relevant_dimensions":["antennae","legs"],"bee_group":{"antennae":"A","wings":"X","pattern":"X","legs":"M"},"action":"harvest","summary":"good-harvest","bonus":1.6800000000000013},{"rt":1241.9000000059605,"stimulus":"\n                    <p><b>Action: <em>harvest</em></b></p>\n                    <p>This is the bee that you just saw.</p>\n                    <img src=\"bees-with-color/bee-B2SM.svg\" width=\"200\">\n                    <p><span class=\"greenText\"><b>Successful harvest!</b></span><br>Your pay has increased by $0.02. Your bonus pay is now $0.40.</p>\n            ","response":0,"trial_type":"html-button-response","trial_index":28,"time_elapsed":497216,"internal_node_id":"0.0-4.0-1.10","subject_id":"5df2235d5a34251266ea645e","study_id":"6197b3f67c2b5cd3b6d9596a","session_id":"619be31ebc53d924303684a2","condition":"contingent","relevant_dimensions":["antennae","legs"],"bee_group":{"antennae":"A","wings":"X","pattern":"X","legs":"M"},"bonus":1.6800000000000013},{"rt":4260.9000000059605,"stimulus":"bees-with-color/bee-A2DF.svg","response":0,"trial_type":"image-button-response","trial_index":29,"time_elapsed":501478,"internal_node_id":"0.0-4.0-0.11","subject_id":"5df2235d5a34251266ea645e","study_id":"6197b3f67c2b5cd3b6d9596a","session_id":"619be31ebc53d924303684a2","condition":"contingent","relevant_dimensions":["antennae","legs"],"bee_group":{"antennae":"A","wings":"X","pattern":"X","legs":"M"},"action":"harvest","summary":"good-harvest","bonus":1.6800000000000013},{"rt":914.5999999940395,"stimulus":"\n                    <p><b>Action: <em>harvest</em></b></p>\n                    <p>This is the bee that you just saw.</p>\n                    <img src=\"bees-with-color/bee-A2DF.svg\" width=\"200\">\n                    <p><span class=\"greenText\"><b>Successful harvest!</b></span><br>Your pay has increased by $0.02. Your bonus pay is now $0.42.</p>\n            ","response":0,"trial_type":"html-button-response","trial_index":30,"time_elapsed":502394,"internal_node_id":"0.0-4.0-1.11","subject_id":"5df2235d5a34251266ea645e","study_id":"6197b3f67c2b5cd3b6d9596a","session_id":"619be31ebc53d924303684a2","condition":"contingent","relevant_dimensions":["antennae","legs"],"bee_group":{"antennae":"A","wings":"X","pattern":"X","legs":"M"},"bonus":1.6800000000000013},{"rt":7606.5,"stimulus":"bees-with-color/bee-A1SM.svg","response":1,"trial_type":"image-button-response","trial_index":31,"time_elapsed":510001,"internal_node_id":"0.0-4.0-0.12","subject_id":"5df2235d5a34251266ea645e","study_id":"6197b3f67c2b5cd3b6d9596a","session_id":"619be31ebc53d924303684a2","condition":"contingent","relevant_dimensions":["antennae","legs"],"bee_group":{"antennae":"A","wings":"X","pattern":"X","legs":"M"},"action":"avoid","summary":"good-avoid","bonus":1.6800000000000013},{"rt":3081.0999999940395,"stimulus":"\n                    <p><b>Action: <em>avoid</em></b></p>\n                    <p>This is the bee that you just saw.</p>\n                    <img src=\"bees-with-color/bee-A1SM.svg\" width=\"200\">\n                    <p><br>Your bonus pay is unchanged, and remains at $0.42.</p>\n            ","response":0,"trial_type":"html-button-response","trial_index":32,"time_elapsed":513083,"internal_node_id":"0.0-4.0-1.12","subject_id":"5df2235d5a34251266ea645e","study_id":"6197b3f67c2b5cd3b6d9596a","session_id":"619be31ebc53d924303684a2","condition":"contingent","relevant_dimensions":["antennae","legs"],"bee_group":{"antennae":"A","wings":"X","pattern":"X","legs":"M"},"bonus":1.6800000000000013},{"rt":1178,"stimulus":"bees-with-color/bee-B1DF.svg","response":0,"trial_type":"image-button-response","trial_index":33,"time_elapsed":514262,"internal_node_id":"0.0-4.0-0.13","subject_id":"5df2235d5a34251266ea645e","study_id":"6197b3f67c2b5cd3b6d9596a","session_id":"619be31ebc53d924303684a2","condition":"contingent","relevant_dimensions":["antennae","legs"],"bee_group":{"antennae":"A","wings":"X","pattern":"X","legs":"M"},"action":"harvest","summary":"good-harvest","bonus":1.6800000000000013},{"rt":1847.9000000059605,"stimulus":"\n                    <p><b>Action: <em>harvest</em></b></p>\n                    <p>This is the bee that you just saw.</p>\n                    <img src=\"bees-with-color/bee-B1DF.svg\" width=\"200\">\n                    <p><span class=\"greenText\"><b>Successful harvest!</b></span><br>Your pay has increased by $0.02. Your bonus pay is now $0.44.</p>\n            ","response":0,"trial_type":"html-button-response","trial_index":34,"time_elapsed":516111,"internal_node_id":"0.0-4.0-1.13","subject_id":"5df2235d5a34251266ea645e","study_id":"6197b3f67c2b5cd3b6d9596a","session_id":"619be31ebc53d924303684a2","condition":"contingent","relevant_dimensions":["antennae","legs"],"bee_group":{"antennae":"A","wings":"X","pattern":"X","legs":"M"},"bonus":1.6800000000000013},{"rt":2876,"stimulus":"bees-with-color/bee-B2DF.svg","response":0,"trial_type":"image-button-response","trial_index":35,"time_elapsed":518988,"internal_node_id":"0.0-4.0-0.14","subject_id":"5df2235d5a34251266ea645e","study_id":"6197b3f67c2b5cd3b6d9596a","session_id":"619be31ebc53d924303684a2","condition":"contingent","relevant_dimensions":["antennae","legs"],"bee_group":{"antennae":"A","wings":"X","pattern":"X","legs":"M"},"action":"harvest","summary":"good-harvest","bonus":1.6800000000000013},{"rt":759,"stimulus":"\n                    <p><b>Action: <em>harvest</em></b></p>\n                    <p>This is the bee that you just saw.</p>\n                    <img src=\"bees-with-color/bee-B2DF.svg\" width=\"200\">\n                    <p><span class=\"greenText\"><b>Successful harvest!</b></span><br>Your pay has increased by $0.02. Your bonus pay is now $0.46.</p>\n            ","response":0,"trial_type":"html-button-response","trial_index":36,"time_elapsed":519748,"internal_node_id":"0.0-4.0-1.14","subject_id":"5df2235d5a34251266ea645e","study_id":"6197b3f67c2b5cd3b6d9596a","session_id":"619be31ebc53d924303684a2","condition":"contingent","relevant_dimensions":["antennae","legs"],"bee_group":{"antennae":"A","wings":"X","pattern":"X","legs":"M"},"bonus":1.6800000000000013},{"rt":2364.5999999940395,"stimulus":"bees-with-color/bee-A1SF.svg","response":0,"trial_type":"image-button-response","trial_index":37,"time_elapsed":522114,"internal_node_id":"0.0-4.0-0.15","subject_id":"5df2235d5a34251266ea645e","study_id":"6197b3f67c2b5cd3b6d9596a","session_id":"619be31ebc53d924303684a2","condition":"contingent","relevant_dimensions":["antennae","legs"],"bee_group":{"antennae":"A","wings":"X","pattern":"X","legs":"M"},"action":"harvest","summary":"good-harvest","bonus":1.6800000000000013},{"rt":643.5,"stimulus":"\n                    <p><b>Action: <em>harvest</em></b></p>\n                    <p>This is the bee that you just saw.</p>\n                    <img src=\"bees-with-color/bee-A1SF.svg\" width=\"200\">\n                    <p><span class=\"greenText\"><b>Successful harvest!</b></span><br>Your pay has increased by $0.02. Your bonus pay is now $0.48.</p>\n            ","response":0,"trial_type":"html-button-response","trial_index":38,"time_elapsed":522758,"internal_node_id":"0.0-4.0-1.15","subject_id":"5df2235d5a34251266ea645e","study_id":"6197b3f67c2b5cd3b6d9596a","session_id":"619be31ebc53d924303684a2","condition":"contingent","relevant_dimensions":["antennae","legs"],"bee_group":{"antennae":"A","wings":"X","pattern":"X","legs":"M"},"bonus":1.6800000000000013},{"rt":2120.9000000059605,"stimulus":"bees-with-color/bee-A1SF.svg","response":0,"trial_type":"image-button-response","trial_index":39,"time_elapsed":524880,"internal_node_id":"0.0-4.0-0.16","subject_id":"5df2235d5a34251266ea645e","study_id":"6197b3f67c2b5cd3b6d9596a","session_id":"619be31ebc53d924303684a2","condition":"contingent","relevant_dimensions":["antennae","legs"],"bee_group":{"antennae":"A","wings":"X","pattern":"X","legs":"M"},"action":"harvest","summary":"good-harvest","bonus":1.6800000000000013},{"rt":615,"stimulus":"\n                    <p><b>Action: <em>harvest</em></b></p>\n                    <p>This is the bee that you just saw.</p>\n                    <img src=\"bees-with-color/bee-A1SF.svg\" width=\"200\">\n                    <p><span class=\"greenText\"><b>Successful harvest!</b></span><br>Your pay has increased by $0.02. Your bonus pay is now $0.50.</p>\n            ","response":0,"trial_type":"html-button-response","trial_index":40,"time_elapsed":525496,"internal_node_id":"0.0-4.0-1.16","subject_id":"5df2235d5a34251266ea645e","study_id":"6197b3f67c2b5cd3b6d9596a","session_id":"619be31ebc53d924303684a2","condition":"contingent","relevant_dimensions":["antennae","legs"],"bee_group":{"antennae":"A","wings":"X","pattern":"X","legs":"M"},"bonus":1.6800000000000013},{"rt":1489.3999999761581,"stimulus":"bees-with-color/bee-A2SF.svg","response":0,"trial_type":"image-button-response","trial_index":41,"time_elapsed":526987,"internal_node_id":"0.0-4.0-0.17","subject_id":"5df2235d5a34251266ea645e","study_id":"6197b3f67c2b5cd3b6d9596a","session_id":"619be31ebc53d924303684a2","condition":"contingent","relevant_dimensions":["antennae","legs"],"bee_group":{"antennae":"A","wings":"X","pattern":"X","legs":"M"},"action":"harvest","summary":"good-harvest","bonus":1.6800000000000013},{"rt":609.1999999880791,"stimulus":"\n                    <p><b>Action: <em>harvest</em></b></p>\n                    <p>This is the bee that you just saw.</p>\n                    <img src=\"bees-with-color/bee-A2SF.svg\" width=\"200\">\n                    <p><span class=\"greenText\"><b>Successful harvest!</b></span><br>Your pay has increased by $0.02. Your bonus pay is now $0.52.</p>\n            ","response":0,"trial_type":"html-button-response","trial_index":42,"time_elapsed":527597,"internal_node_id":"0.0-4.0-1.17","subject_id":"5df2235d5a34251266ea645e","study_id":"6197b3f67c2b5cd3b6d9596a","session_id":"619be31ebc53d924303684a2","condition":"contingent","relevant_dimensions":["antennae","legs"],"bee_group":{"antennae":"A","wings":"X","pattern":"X","legs":"M"},"bonus":1.6800000000000013},{"rt":1983.5999999940395,"stimulus":"bees-with-color/bee-B1DF.svg","response":0,"trial_type":"image-button-response","trial_index":43,"time_elapsed":529582,"internal_node_id":"0.0-4.0-0.18","subject_id":"5df2235d5a34251266ea645e","study_id":"6197b3f67c2b5cd3b6d9596a","session_id":"619be31ebc53d924303684a2","condition":"contingent","relevant_dimensions":["antennae","legs"],"bee_group":{"antennae":"A","wings":"X","pattern":"X","legs":"M"},"action":"harvest","summary":"good-harvest","bonus":1.6800000000000013},{"rt":553.9000000059605,"stimulus":"\n                    <p><b>Action: <em>harvest</em></b></p>\n                    <p>This is the bee that you just saw.</p>\n                    <img src=\"bees-with-color/bee-B1DF.svg\" width=\"200\">\n                    <p><span class=\"greenText\"><b>Successful harvest!</b></span><br>Your pay has increased by $0.02. Your bonus pay is now $0.54.</p>\n            ","response":0,"trial_type":"html-button-response","trial_index":44,"time_elapsed":530136,"internal_node_id":"0.0-4.0-1.18","subject_id":"5df2235d5a34251266ea645e","study_id":"6197b3f67c2b5cd3b6d9596a","session_id":"619be31ebc53d924303684a2","condition":"contingent","relevant_dimensions":["antennae","legs"],"bee_group":{"antennae":"A","wings":"X","pattern":"X","legs":"M"},"bonus":1.6800000000000013},{"rt":753.4000000059605,"stimulus":"bees-with-color/bee-B2DF.svg","response":0,"trial_type":"image-button-response","trial_index":45,"time_elapsed":530891,"internal_node_id":"0.0-4.0-0.19","subject_id":"5df2235d5a34251266ea645e","study_id":"6197b3f67c2b5cd3b6d9596a","session_id":"619be31ebc53d924303684a2","condition":"contingent","relevant_dimensions":["antennae","legs"],"bee_group":{"antennae":"A","wings":"X","pattern":"X","legs":"M"},"action":"harvest","summary":"good-harvest","bonus":1.6800000000000013},{"rt":569.5999999940395,"stimulus":"\n                    <p><b>Action: <em>harvest</em></b></p>\n                    <p>This is the bee that you just saw.</p>\n                    <img src=\"bees-with-color/bee-B2DF.svg\" width=\"200\">\n                    <p><span class=\"greenText\"><b>Successful harvest!</b></span><br>Your pay has increased by $0.02. Your bonus pay is now $0.56.</p>\n            ","response":0,"trial_type":"html-button-response","trial_index":46,"time_elapsed":531462,"internal_node_id":"0.0-4.0-1.19","subject_id":"5df2235d5a34251266ea645e","study_id":"6197b3f67c2b5cd3b6d9596a","session_id":"619be31ebc53d924303684a2","condition":"contingent","relevant_dimensions":["antennae","legs"],"bee_group":{"antennae":"A","wings":"X","pattern":"X","legs":"M"},"bonus":1.6800000000000013},{"rt":1295.5999999940395,"stimulus":"bees-with-color/bee-A2DM.svg","response":1,"trial_type":"image-button-response","trial_index":47,"time_elapsed":532758,"internal_node_id":"0.0-4.0-0.20","subject_id":"5df2235d5a34251266ea645e","study_id":"6197b3f67c2b5cd3b6d9596a","session_id":"619be31ebc53d924303684a2","condition":"contingent","relevant_dimensions":["antennae","legs"],"bee_group":{"antennae":"A","wings":"X","pattern":"X","legs":"M"},"action":"avoid","summary":"good-avoid","bonus":1.6800000000000013},{"rt":507.80000001192093,"stimulus":"\n                    <p><b>Action: <em>avoid</em></b></p>\n                    <p>This is the bee that you just saw.</p>\n                    <img src=\"bees-with-color/bee-A2DM.svg\" width=\"200\">\n                    <p><br>Your bonus pay is unchanged, and remains at $0.56.</p>\n            ","response":0,"trial_type":"html-button-response","trial_index":48,"time_elapsed":533267,"internal_node_id":"0.0-4.0-1.20","subject_id":"5df2235d5a34251266ea645e","study_id":"6197b3f67c2b5cd3b6d9596a","session_id":"619be31ebc53d924303684a2","condition":"contingent","relevant_dimensions":["antennae","legs"],"bee_group":{"antennae":"A","wings":"X","pattern":"X","legs":"M"},"bonus":1.6800000000000013},{"rt":7654.799999982119,"stimulus":"bees-with-color/bee-A1DM.svg","response":1,"trial_type":"image-button-response","trial_index":49,"time_elapsed":540922,"internal_node_id":"0.0-4.0-0.21","subject_id":"5df2235d5a34251266ea645e","study_id":"6197b3f67c2b5cd3b6d9596a","session_id":"619be31ebc53d924303684a2","condition":"contingent","relevant_dimensions":["antennae","legs"],"bee_group":{"antennae":"A","wings":"X","pattern":"X","legs":"M"},"action":"avoid","summary":"good-avoid","bonus":1.6800000000000013},{"rt":1166,"stimulus":"\n                    <p><b>Action: <em>avoid</em></b></p>\n                    <p>This is the bee that you just saw.</p>\n                    <img src=\"bees-with-color/bee-A1DM.svg\" width=\"200\">\n                    <p><br>Your bonus pay is unchanged, and remains at $0.56.</p>\n            ","response":0,"trial_type":"html-button-response","trial_index":50,"time_elapsed":542089,"internal_node_id":"0.0-4.0-1.21","subject_id":"5df2235d5a34251266ea645e","study_id":"6197b3f67c2b5cd3b6d9596a","session_id":"619be31ebc53d924303684a2","condition":"contingent","relevant_dimensions":["antennae","legs"],"bee_group":{"antennae":"A","wings":"X","pattern":"X","legs":"M"},"bonus":1.6800000000000013},{"rt":1188.9000000059605,"stimulus":"bees-with-color/bee-B2SF.svg","response":0,"trial_type":"image-button-response","trial_index":51,"time_elapsed":543279,"internal_node_id":"0.0-4.0-0.22","subject_id":"5df2235d5a34251266ea645e","study_id":"6197b3f67c2b5cd3b6d9596a","session_id":"619be31ebc53d924303684a2","condition":"contingent","relevant_dimensions":["antennae","legs"],"bee_group":{"antennae":"A","wings":"X","pattern":"X","legs":"M"},"action":"harvest","summary":"good-harvest","bonus":1.6800000000000013},{"rt":740.5,"stimulus":"\n                    <p><b>Action: <em>harvest</em></b></p>\n                    <p>This is the bee that you just saw.</p>\n                    <img src=\"bees-with-color/bee-B2SF.svg\" width=\"200\">\n                    <p><span class=\"greenText\"><b>Successful harvest!</b></span><br>Your pay has increased by $0.02. Your bonus pay is now $0.58.</p>\n            ","response":0,"trial_type":"html-button-response","trial_index":52,"time_elapsed":544021,"internal_node_id":"0.0-4.0-1.22","subject_id":"5df2235d5a34251266ea645e","study_id":"6197b3f67c2b5cd3b6d9596a","session_id":"619be31ebc53d924303684a2","condition":"contingent","relevant_dimensions":["antennae","legs"],"bee_group":{"antennae":"A","wings":"X","pattern":"X","legs":"M"},"bonus":1.6800000000000013},{"rt":842,"stimulus":"bees-with-color/bee-B1SM.svg","response":0,"trial_type":"image-button-response","trial_index":53,"time_elapsed":544863,"internal_node_id":"0.0-4.0-0.23","subject_id":"5df2235d5a34251266ea645e","study_id":"6197b3f67c2b5cd3b6d9596a","session_id":"619be31ebc53d924303684a2","condition":"contingent","relevant_dimensions":["antennae","legs"],"bee_group":{"antennae":"A","wings":"X","pattern":"X","legs":"M"},"action":"harvest","summary":"good-harvest","bonus":1.6800000000000013},{"rt":432.5,"stimulus":"\n                    <p><b>Action: <em>harvest</em></b></p>\n                    <p>This is the bee that you just saw.</p>\n                    <img src=\"bees-with-color/bee-B1SM.svg\" width=\"200\">\n                    <p><span class=\"greenText\"><b>Successful harvest!</b></span><br>Your pay has increased by $0.02. Your bonus pay is now $0.60.</p>\n            ","response":0,"trial_type":"html-button-response","trial_index":54,"time_elapsed":545297,"internal_node_id":"0.0-4.0-1.23","subject_id":"5df2235d5a34251266ea645e","study_id":"6197b3f67c2b5cd3b6d9596a","session_id":"619be31ebc53d924303684a2","condition":"contingent","relevant_dimensions":["antennae","legs"],"bee_group":{"antennae":"A","wings":"X","pattern":"X","legs":"M"},"bonus":1.6800000000000013},{"rt":1677.0999999940395,"stimulus":"bees-with-color/bee-B2SM.svg","response":0,"trial_type":"image-button-response","trial_index":55,"time_elapsed":546975,"internal_node_id":"0.0-4.0-0.24","subject_id":"5df2235d5a34251266ea645e","study_id":"6197b3f67c2b5cd3b6d9596a","session_id":"619be31ebc53d924303684a2","condition":"contingent","relevant_dimensions":["antennae","legs"],"bee_group":{"antennae":"A","wings":"X","pattern":"X","legs":"M"},"action":"harvest","summary":"good-harvest","bonus":1.6800000000000013},{"rt":729.4000000059605,"stimulus":"\n                    <p><b>Action: <em>harvest</em></b></p>\n                    <p>This is the bee that you just saw.</p>\n                    <img src=\"bees-with-color/bee-B2SM.svg\" width=\"200\">\n                    <p><span class=\"greenText\"><b>Successful harvest!</b></span><br>Your pay has increased by $0.02. Your bonus pay is now $0.62.</p>\n            ","response":0,"trial_type":"html-button-response","trial_index":56,"time_elapsed":547705,"internal_node_id":"0.0-4.0-1.24","subject_id":"5df2235d5a34251266ea645e","study_id":"6197b3f67c2b5cd3b6d9596a","session_id":"619be31ebc53d924303684a2","condition":"contingent","relevant_dimensions":["antennae","legs"],"bee_group":{"antennae":"A","wings":"X","pattern":"X","legs":"M"},"bonus":1.6800000000000013},{"rt":892.5,"stimulus":"bees-with-color/bee-B1SF.svg","response":0,"trial_type":"image-button-response","trial_index":57,"time_elapsed":548598,"internal_node_id":"0.0-4.0-0.25","subject_id":"5df2235d5a34251266ea645e","study_id":"6197b3f67c2b5cd3b6d9596a","session_id":"619be31ebc53d924303684a2","condition":"contingent","relevant_dimensions":["antennae","legs"],"bee_group":{"antennae":"A","wings":"X","pattern":"X","legs":"M"},"action":"harvest","summary":"good-harvest","bonus":1.6800000000000013},{"rt":441.5,"stimulus":"\n                    <p><b>Action: <em>harvest</em></b></p>\n                    <p>This is the bee that you just saw.</p>\n                    <img src=\"bees-with-color/bee-B1SF.svg\" width=\"200\">\n                    <p><span class=\"greenText\"><b>Successful harvest!</b></span><br>Your pay has increased by $0.02. Your bonus pay is now $0.64.</p>\n            ","response":0,"trial_type":"html-button-response","trial_index":58,"time_elapsed":549041,"internal_node_id":"0.0-4.0-1.25","subject_id":"5df2235d5a34251266ea645e","study_id":"6197b3f67c2b5cd3b6d9596a","session_id":"619be31ebc53d924303684a2","condition":"contingent","relevant_dimensions":["antennae","legs"],"bee_group":{"antennae":"A","wings":"X","pattern":"X","legs":"M"},"bonus":1.6800000000000013},{"rt":1204.199999988079,"stimulus":"bees-with-color/bee-B2DM.svg","response":0,"trial_type":"image-button-response","trial_index":59,"time_elapsed":550246,"internal_node_id":"0.0-4.0-0.26","subject_id":"5df2235d5a34251266ea645e","study_id":"6197b3f67c2b5cd3b6d9596a","session_id":"619be31ebc53d924303684a2","condition":"contingent","relevant_dimensions":["antennae","legs"],"bee_group":{"antennae":"A","wings":"X","pattern":"X","legs":"M"},"action":"harvest","summary":"good-harvest","bonus":1.6800000000000013},{"rt":499.09999999403954,"stimulus":"\n                    <p><b>Action: <em>harvest</em></b></p>\n                    <p>This is the bee that you just saw.</p>\n                    <img src=\"bees-with-color/bee-B2DM.svg\" width=\"200\">\n                    <p><span class=\"greenText\"><b>Successful harvest!</b></span><br>Your pay has increased by $0.02. Your bonus pay is now $0.66.</p>\n            ","response":0,"trial_type":"html-button-response","trial_index":60,"time_elapsed":550746,"internal_node_id":"0.0-4.0-1.26","subject_id":"5df2235d5a34251266ea645e","study_id":"6197b3f67c2b5cd3b6d9596a","session_id":"619be31ebc53d924303684a2","condition":"contingent","relevant_dimensions":["antennae","legs"],"bee_group":{"antennae":"A","wings":"X","pattern":"X","legs":"M"},"bonus":1.6800000000000013},{"rt":1497.3999999761581,"stimulus":"bees-with-color/bee-A2DF.svg","response":0,"trial_type":"image-button-response","trial_index":61,"time_elapsed":552244,"internal_node_id":"0.0-4.0-0.27","subject_id":"5df2235d5a34251266ea645e","study_id":"6197b3f67c2b5cd3b6d9596a","session_id":"619be31ebc53d924303684a2","condition":"contingent","relevant_dimensions":["antennae","legs"],"bee_group":{"antennae":"A","wings":"X","pattern":"X","legs":"M"},"action":"harvest","summary":"good-harvest","bonus":1.6800000000000013},{"rt":566.2000000178814,"stimulus":"\n                    <p><b>Action: <em>harvest</em></b></p>\n                    <p>This is the bee that you just saw.</p>\n                    <img src=\"bees-with-color/bee-A2DF.svg\" width=\"200\">\n                    <p><span class=\"greenText\"><b>Successful harvest!</b></span><br>Your pay has increased by $0.02. Your bonus pay is now $0.68.</p>\n            ","response":0,"trial_type":"html-button-response","trial_index":62,"time_elapsed":552811,"internal_node_id":"0.0-4.0-1.27","subject_id":"5df2235d5a34251266ea645e","study_id":"6197b3f67c2b5cd3b6d9596a","session_id":"619be31ebc53d924303684a2","condition":"contingent","relevant_dimensions":["antennae","legs"],"bee_group":{"antennae":"A","wings":"X","pattern":"X","legs":"M"},"bonus":1.6800000000000013},{"rt":969.4000000059605,"stimulus":"bees-with-color/bee-B1DM.svg","response":0,"trial_type":"image-button-response","trial_index":63,"time_elapsed":553781,"internal_node_id":"0.0-4.0-0.28","subject_id":"5df2235d5a34251266ea645e","study_id":"6197b3f67c2b5cd3b6d9596a","session_id":"619be31ebc53d924303684a2","condition":"contingent","relevant_dimensions":["antennae","legs"],"bee_group":{"antennae":"A","wings":"X","pattern":"X","legs":"M"},"action":"harvest","summary":"good-harvest","bonus":1.6800000000000013},{"rt":504.09999999403954,"stimulus":"\n                    <p><b>Action: <em>harvest</em></b></p>\n                    <p>This is the bee that you just saw.</p>\n                    <img src=\"bees-with-color/bee-B1DM.svg\" width=\"200\">\n                    <p><span class=\"greenText\"><b>Successful harvest!</b></span><br>Your pay has increased by $0.02. Your bonus pay is now $0.70.</p>\n            ","response":0,"trial_type":"html-button-response","trial_index":64,"time_elapsed":554286,"internal_node_id":"0.0-4.0-1.28","subject_id":"5df2235d5a34251266ea645e","study_id":"6197b3f67c2b5cd3b6d9596a","session_id":"619be31ebc53d924303684a2","condition":"contingent","relevant_dimensions":["antennae","legs"],"bee_group":{"antennae":"A","wings":"X","pattern":"X","legs":"M"},"bonus":1.6800000000000013},{"rt":932.6999999880791,"stimulus":"bees-with-color/bee-A2SM.svg","response":1,"trial_type":"image-button-response","trial_index":65,"time_elapsed":555220,"internal_node_id":"0.0-4.0-0.29","subject_id":"5df2235d5a34251266ea645e","study_id":"6197b3f67c2b5cd3b6d9596a","session_id":"619be31ebc53d924303684a2","condition":"contingent","relevant_dimensions":["antennae","legs"],"bee_group":{"antennae":"A","wings":"X","pattern":"X","legs":"M"},"action":"avoid","summary":"good-avoid","bonus":1.6800000000000013},{"rt":479.19999998807907,"stimulus":"\n                    <p><b>Action: <em>avoid</em></b></p>\n                    <p>This is the bee that you just saw.</p>\n                    <img src=\"bees-with-color/bee-A2SM.svg\" width=\"200\">\n                    <p><br>Your bonus pay is unchanged, and remains at $0.70.</p>\n            ","response":0,"trial_type":"html-button-response","trial_index":66,"time_elapsed":555700,"internal_node_id":"0.0-4.0-1.29","subject_id":"5df2235d5a34251266ea645e","study_id":"6197b3f67c2b5cd3b6d9596a","session_id":"619be31ebc53d924303684a2","condition":"contingent","relevant_dimensions":["antennae","legs"],"bee_group":{"antennae":"A","wings":"X","pattern":"X","legs":"M"},"bonus":1.6800000000000013},{"rt":1045.0999999940395,"stimulus":"bees-with-color/bee-A1DF.svg","response":0,"trial_type":"image-button-response","trial_index":67,"time_elapsed":556746,"internal_node_id":"0.0-4.0-0.30","subject_id":"5df2235d5a34251266ea645e","study_id":"6197b3f67c2b5cd3b6d9596a","session_id":"619be31ebc53d924303684a2","condition":"contingent","relevant_dimensions":["antennae","legs"],"bee_group":{"antennae":"A","wings":"X","pattern":"X","legs":"M"},"action":"harvest","summary":"good-harvest","bonus":1.6800000000000013},{"rt":505.60000002384186,"stimulus":"\n                    <p><b>Action: <em>harvest</em></b></p>\n                    <p>This is the bee that you just saw.</p>\n                    <img src=\"bees-with-color/bee-A1DF.svg\" width=\"200\">\n                    <p><span class=\"greenText\"><b>Successful harvest!</b></span><br>Your pay has increased by $0.02. Your bonus pay is now $0.72.</p>\n            ","response":0,"trial_type":"html-button-response","trial_index":68,"time_elapsed":557253,"internal_node_id":"0.0-4.0-1.30","subject_id":"5df2235d5a34251266ea645e","study_id":"6197b3f67c2b5cd3b6d9596a","session_id":"619be31ebc53d924303684a2","condition":"contingent","relevant_dimensions":["antennae","legs"],"bee_group":{"antennae":"A","wings":"X","pattern":"X","legs":"M"},"bonus":1.6800000000000013},{"rt":925.4000000059605,"stimulus":"bees-with-color/bee-A1SM.svg","response":1,"trial_type":"image-button-response","trial_index":69,"time_elapsed":558179,"internal_node_id":"0.0-4.0-0.31","subject_id":"5df2235d5a34251266ea645e","study_id":"6197b3f67c2b5cd3b6d9596a","session_id":"619be31ebc53d924303684a2","condition":"contingent","relevant_dimensions":["antennae","legs"],"bee_group":{"antennae":"A","wings":"X","pattern":"X","legs":"M"},"action":"avoid","summary":"good-avoid","bonus":1.6800000000000013},{"rt":534.8000000119209,"stimulus":"\n                    <p><b>Action: <em>avoid</em></b></p>\n                    <p>This is the bee that you just saw.</p>\n                    <img src=\"bees-with-color/bee-A1SM.svg\" width=\"200\">\n                    <p><br>Your bonus pay is unchanged, and remains at $0.72.</p>\n            ","response":0,"trial_type":"html-button-response","trial_index":70,"time_elapsed":558715,"internal_node_id":"0.0-4.0-1.31","subject_id":"5df2235d5a34251266ea645e","study_id":"6197b3f67c2b5cd3b6d9596a","session_id":"619be31ebc53d924303684a2","condition":"contingent","relevant_dimensions":["antennae","legs"],"bee_group":{"antennae":"A","wings":"X","pattern":"X","legs":"M"},"bonus":1.6800000000000013},{"rt":917.0999999940395,"stimulus":"bees-with-color/bee-B2DF.svg","response":0,"trial_type":"image-button-response","trial_index":71,"time_elapsed":559633,"internal_node_id":"0.0-4.0-0.32","subject_id":"5df2235d5a34251266ea645e","study_id":"6197b3f67c2b5cd3b6d9596a","session_id":"619be31ebc53d924303684a2","condition":"contingent","relevant_dimensions":["antennae","legs"],"bee_group":{"antennae":"A","wings":"X","pattern":"X","legs":"M"},"action":"harvest","summary":"good-harvest","bonus":1.6800000000000013},{"rt":486.90000000596046,"stimulus":"\n                    <p><b>Action: <em>harvest</em></b></p>\n                    <p>This is the bee that you just saw.</p>\n                    <img src=\"bees-with-color/bee-B2DF.svg\" width=\"200\">\n                    <p><span class=\"greenText\"><b>Successful harvest!</b></span><br>Your pay has increased by $0.02. Your bonus pay is now $0.74.</p>\n            ","response":0,"trial_type":"html-button-response","trial_index":72,"time_elapsed":560121,"internal_node_id":"0.0-4.0-1.32","subject_id":"5df2235d5a34251266ea645e","study_id":"6197b3f67c2b5cd3b6d9596a","session_id":"619be31ebc53d924303684a2","condition":"contingent","relevant_dimensions":["antennae","legs"],"bee_group":{"antennae":"A","wings":"X","pattern":"X","legs":"M"},"bonus":1.6800000000000013},{"rt":822.4000000059605,"stimulus":"bees-with-color/bee-B1DM.svg","response":0,"trial_type":"image-button-response","trial_index":73,"time_elapsed":560944,"internal_node_id":"0.0-4.0-0.33","subject_id":"5df2235d5a34251266ea645e","study_id":"6197b3f67c2b5cd3b6d9596a","session_id":"619be31ebc53d924303684a2","condition":"contingent","relevant_dimensions":["antennae","legs"],"bee_group":{"antennae":"A","wings":"X","pattern":"X","legs":"M"},"action":"harvest","summary":"good-harvest","bonus":1.6800000000000013},{"rt":435.69999998807907,"stimulus":"\n                    <p><b>Action: <em>harvest</em></b></p>\n                    <p>This is the bee that you just saw.</p>\n                    <img src=\"bees-with-color/bee-B1DM.svg\" width=\"200\">\n                    <p><span class=\"greenText\"><b>Successful harvest!</b></span><br>Your pay has increased by $0.02. Your bonus pay is now $0.76.</p>\n            ","response":0,"trial_type":"html-button-response","trial_index":74,"time_elapsed":561381,"internal_node_id":"0.0-4.0-1.33","subject_id":"5df2235d5a34251266ea645e","study_id":"6197b3f67c2b5cd3b6d9596a","session_id":"619be31ebc53d924303684a2","condition":"contingent","relevant_dimensions":["antennae","legs"],"bee_group":{"antennae":"A","wings":"X","pattern":"X","legs":"M"},"bonus":1.6800000000000013},{"rt":938.1000000238419,"stimulus":"bees-with-color/bee-B2SM.svg","response":0,"trial_type":"image-button-response","trial_index":75,"time_elapsed":562319,"internal_node_id":"0.0-4.0-0.34","subject_id":"5df2235d5a34251266ea645e","study_id":"6197b3f67c2b5cd3b6d9596a","session_id":"619be31ebc53d924303684a2","condition":"contingent","relevant_dimensions":["antennae","legs"],"bee_group":{"antennae":"A","wings":"X","pattern":"X","legs":"M"},"action":"harvest","summary":"good-harvest","bonus":1.6800000000000013},{"rt":441.7000000178814,"stimulus":"\n                    <p><b>Action: <em>harvest</em></b></p>\n                    <p>This is the bee that you just saw.</p>\n                    <img src=\"bees-with-color/bee-B2SM.svg\" width=\"200\">\n                    <p><span class=\"greenText\"><b>Successful harvest!</b></span><br>Your pay has increased by $0.02. Your bonus pay is now $0.78.</p>\n            ","response":0,"trial_type":"html-button-response","trial_index":76,"time_elapsed":562762,"internal_node_id":"0.0-4.0-1.34","subject_id":"5df2235d5a34251266ea645e","study_id":"6197b3f67c2b5cd3b6d9596a","session_id":"619be31ebc53d924303684a2","condition":"contingent","relevant_dimensions":["antennae","legs"],"bee_group":{"antennae":"A","wings":"X","pattern":"X","legs":"M"},"bonus":1.6800000000000013},{"rt":1035,"stimulus":"bees-with-color/bee-A1SF.svg","response":0,"trial_type":"image-button-response","trial_index":77,"time_elapsed":563798,"internal_node_id":"0.0-4.0-0.35","subject_id":"5df2235d5a34251266ea645e","study_id":"6197b3f67c2b5cd3b6d9596a","session_id":"619be31ebc53d924303684a2","condition":"contingent","relevant_dimensions":["antennae","legs"],"bee_group":{"antennae":"A","wings":"X","pattern":"X","legs":"M"},"action":"harvest","summary":"good-harvest","bonus":1.6800000000000013},{"rt":527.0999999940395,"stimulus":"\n                    <p><b>Action: <em>harvest</em></b></p>\n                    <p>This is the bee that you just saw.</p>\n                    <img src=\"bees-with-color/bee-A1SF.svg\" width=\"200\">\n                    <p><span class=\"greenText\"><b>Successful harvest!</b></span><br>Your pay has increased by $0.02. Your bonus pay is now $0.80.</p>\n            ","response":0,"trial_type":"html-button-response","trial_index":78,"time_elapsed":564326,"internal_node_id":"0.0-4.0-1.35","subject_id":"5df2235d5a34251266ea645e","study_id":"6197b3f67c2b5cd3b6d9596a","session_id":"619be31ebc53d924303684a2","condition":"contingent","relevant_dimensions":["antennae","legs"],"bee_group":{"antennae":"A","wings":"X","pattern":"X","legs":"M"},"bonus":1.6800000000000013},{"rt":974.3000000119209,"stimulus":"bees-with-color/bee-A2DM.svg","response":1,"trial_type":"image-button-response","trial_index":79,"time_elapsed":565301,"internal_node_id":"0.0-4.0-0.36","subject_id":"5df2235d5a34251266ea645e","study_id":"6197b3f67c2b5cd3b6d9596a","session_id":"619be31ebc53d924303684a2","condition":"contingent","relevant_dimensions":["antennae","legs"],"bee_group":{"antennae":"A","wings":"X","pattern":"X","legs":"M"},"action":"avoid","summary":"good-avoid","bonus":1.6800000000000013},{"rt":450.90000000596046,"stimulus":"\n                    <p><b>Action: <em>avoid</em></b></p>\n                    <p>This is the bee that you just saw.</p>\n                    <img src=\"bees-with-color/bee-A2DM.svg\" width=\"200\">\n                    <p><br>Your bonus pay is unchanged, and remains at $0.80.</p>\n            ","response":0,"trial_type":"html-button-response","trial_index":80,"time_elapsed":565753,"internal_node_id":"0.0-4.0-1.36","subject_id":"5df2235d5a34251266ea645e","study_id":"6197b3f67c2b5cd3b6d9596a","session_id":"619be31ebc53d924303684a2","condition":"contingent","relevant_dimensions":["antennae","legs"],"bee_group":{"antennae":"A","wings":"X","pattern":"X","legs":"M"},"bonus":1.6800000000000013},{"rt":1140,"stimulus":"bees-with-color/bee-A2DF.svg","response":0,"trial_type":"image-button-response","trial_index":81,"time_elapsed":566893,"internal_node_id":"0.0-4.0-0.37","subject_id":"5df2235d5a34251266ea645e","study_id":"6197b3f67c2b5cd3b6d9596a","session_id":"619be31ebc53d924303684a2","condition":"contingent","relevant_dimensions":["antennae","legs"],"bee_group":{"antennae":"A","wings":"X","pattern":"X","legs":"M"},"action":"harvest","summary":"good-harvest","bonus":1.6800000000000013},{"rt":537.9000000059605,"stimulus":"\n                    <p><b>Action: <em>harvest</em></b></p>\n                    <p>This is the bee that you just saw.</p>\n                    <img src=\"bees-with-color/bee-A2DF.svg\" width=\"200\">\n                    <p><span class=\"greenText\"><b>Successful harvest!</b></span><br>Your pay has increased by $0.02. Your bonus pay is now $0.82.</p>\n            ","response":0,"trial_type":"html-button-response","trial_index":82,"time_elapsed":567432,"internal_node_id":"0.0-4.0-1.37","subject_id":"5df2235d5a34251266ea645e","study_id":"6197b3f67c2b5cd3b6d9596a","session_id":"619be31ebc53d924303684a2","condition":"contingent","relevant_dimensions":["antennae","legs"],"bee_group":{"antennae":"A","wings":"X","pattern":"X","legs":"M"},"bonus":1.6800000000000013},{"rt":843.8999999761581,"stimulus":"bees-with-color/bee-B1DF.svg","response":0,"trial_type":"image-button-response","trial_index":83,"time_elapsed":568277,"internal_node_id":"0.0-4.0-0.38","subject_id":"5df2235d5a34251266ea645e","study_id":"6197b3f67c2b5cd3b6d9596a","session_id":"619be31ebc53d924303684a2","condition":"contingent","relevant_dimensions":["antennae","legs"],"bee_group":{"antennae":"A","wings":"X","pattern":"X","legs":"M"},"action":"harvest","summary":"good-harvest","bonus":1.6800000000000013},{"rt":405.5,"stimulus":"\n                    <p><b>Action: <em>harvest</em></b></p>\n                    <p>This is the bee that you just saw.</p>\n                    <img src=\"bees-with-color/bee-B1DF.svg\" width=\"200\">\n                    <p><span class=\"greenText\"><b>Successful harvest!</b></span><br>Your pay has increased by $0.02. Your bonus pay is now $0.84.</p>\n            ","response":0,"trial_type":"html-button-response","trial_index":84,"time_elapsed":568683,"internal_node_id":"0.0-4.0-1.38","subject_id":"5df2235d5a34251266ea645e","study_id":"6197b3f67c2b5cd3b6d9596a","session_id":"619be31ebc53d924303684a2","condition":"contingent","relevant_dimensions":["antennae","legs"],"bee_group":{"antennae":"A","wings":"X","pattern":"X","legs":"M"},"bonus":1.6800000000000013},{"rt":1831.5999999940395,"stimulus":"bees-with-color/bee-A1DM.svg","response":1,"trial_type":"image-button-response","trial_index":85,"time_elapsed":570516,"internal_node_id":"0.0-4.0-0.39","subject_id":"5df2235d5a34251266ea645e","study_id":"6197b3f67c2b5cd3b6d9596a","session_id":"619be31ebc53d924303684a2","condition":"contingent","relevant_dimensions":["antennae","legs"],"bee_group":{"antennae":"A","wings":"X","pattern":"X","legs":"M"},"action":"avoid","summary":"good-avoid","bonus":1.6800000000000013},{"rt":396.19999998807907,"stimulus":"\n                    <p><b>Action: <em>avoid</em></b></p>\n                    <p>This is the bee that you just saw.</p>\n                    <img src=\"bees-with-color/bee-A1DM.svg\" width=\"200\">\n                    <p><br>Your bonus pay is unchanged, and remains at $0.84.</p>\n            ","response":0,"trial_type":"html-button-response","trial_index":86,"time_elapsed":570913,"internal_node_id":"0.0-4.0-1.39","subject_id":"5df2235d5a34251266ea645e","study_id":"6197b3f67c2b5cd3b6d9596a","session_id":"619be31ebc53d924303684a2","condition":"contingent","relevant_dimensions":["antennae","legs"],"bee_group":{"antennae":"A","wings":"X","pattern":"X","legs":"M"},"bonus":1.6800000000000013},{"rt":1253.5,"stimulus":"bees-with-color/bee-A1DF.svg","response":0,"trial_type":"image-button-response","trial_index":87,"time_elapsed":572167,"internal_node_id":"0.0-4.0-0.40","subject_id":"5df2235d5a34251266ea645e","study_id":"6197b3f67c2b5cd3b6d9596a","session_id":"619be31ebc53d924303684a2","condition":"contingent","relevant_dimensions":["antennae","legs"],"bee_group":{"antennae":"A","wings":"X","pattern":"X","legs":"M"},"action":"harvest","summary":"good-harvest","bonus":1.6800000000000013},{"rt":394.09999999403954,"stimulus":"\n                    <p><b>Action: <em>harvest</em></b></p>\n                    <p>This is the bee that you just saw.</p>\n                    <img src=\"bees-with-color/bee-A1DF.svg\" width=\"200\">\n                    <p><span class=\"greenText\"><b>Successful harvest!</b></span><br>Your pay has increased by $0.02. Your bonus pay is now $0.86.</p>\n            ","response":0,"trial_type":"html-button-response","trial_index":88,"time_elapsed":572562,"internal_node_id":"0.0-4.0-1.40","subject_id":"5df2235d5a34251266ea645e","study_id":"6197b3f67c2b5cd3b6d9596a","session_id":"619be31ebc53d924303684a2","condition":"contingent","relevant_dimensions":["antennae","legs"],"bee_group":{"antennae":"A","wings":"X","pattern":"X","legs":"M"},"bonus":1.6800000000000013},{"rt":737.3999999761581,"stimulus":"bees-with-color/bee-B1SM.svg","response":0,"trial_type":"image-button-response","trial_index":89,"time_elapsed":573300,"internal_node_id":"0.0-4.0-0.41","subject_id":"5df2235d5a34251266ea645e","study_id":"6197b3f67c2b5cd3b6d9596a","session_id":"619be31ebc53d924303684a2","condition":"contingent","relevant_dimensions":["antennae","legs"],"bee_group":{"antennae":"A","wings":"X","pattern":"X","legs":"M"},"action":"harvest","summary":"good-harvest","bonus":1.6800000000000013},{"rt":391.40000000596046,"stimulus":"\n                    <p><b>Action: <em>harvest</em></b></p>\n                    <p>This is the bee that you just saw.</p>\n                    <img src=\"bees-with-color/bee-B1SM.svg\" width=\"200\">\n                    <p><span class=\"greenText\"><b>Successful harvest!</b></span><br>Your pay has increased by $0.02. Your bonus pay is now $0.88.</p>\n            ","response":0,"trial_type":"html-button-response","trial_index":90,"time_elapsed":573693,"internal_node_id":"0.0-4.0-1.41","subject_id":"5df2235d5a34251266ea645e","study_id":"6197b3f67c2b5cd3b6d9596a","session_id":"619be31ebc53d924303684a2","condition":"contingent","relevant_dimensions":["antennae","legs"],"bee_group":{"antennae":"A","wings":"X","pattern":"X","legs":"M"},"bonus":1.6800000000000013},{"rt":1113.0999999940395,"stimulus":"bees-with-color/bee-A2SM.svg","response":1,"trial_type":"image-button-response","trial_index":91,"time_elapsed":574807,"internal_node_id":"0.0-4.0-0.42","subject_id":"5df2235d5a34251266ea645e","study_id":"6197b3f67c2b5cd3b6d9596a","session_id":"619be31ebc53d924303684a2","condition":"contingent","relevant_dimensions":["antennae","legs"],"bee_group":{"antennae":"A","wings":"X","pattern":"X","legs":"M"},"action":"avoid","summary":"good-avoid","bonus":1.6800000000000013},{"rt":371.39999997615814,"stimulus":"\n                    <p><b>Action: <em>avoid</em></b></p>\n                    <p>This is the bee that you just saw.</p>\n                    <img src=\"bees-with-color/bee-A2SM.svg\" width=\"200\">\n                    <p><br>Your bonus pay is unchanged, and remains at $0.88.</p>\n            ","response":0,"trial_type":"html-button-response","trial_index":92,"time_elapsed":575179,"internal_node_id":"0.0-4.0-1.42","subject_id":"5df2235d5a34251266ea645e","study_id":"6197b3f67c2b5cd3b6d9596a","session_id":"619be31ebc53d924303684a2","condition":"contingent","relevant_dimensions":["antennae","legs"],"bee_group":{"antennae":"A","wings":"X","pattern":"X","legs":"M"},"bonus":1.6800000000000013},{"rt":1166.4000000059605,"stimulus":"bees-with-color/bee-B1SF.svg","response":0,"trial_type":"image-button-response","trial_index":93,"time_elapsed":576346,"internal_node_id":"0.0-4.0-0.43","subject_id":"5df2235d5a34251266ea645e","study_id":"6197b3f67c2b5cd3b6d9596a","session_id":"619be31ebc53d924303684a2","condition":"contingent","relevant_dimensions":["antennae","legs"],"bee_group":{"antennae":"A","wings":"X","pattern":"X","legs":"M"},"action":"harvest","summary":"good-harvest","bonus":1.6800000000000013},{"rt":1587.5,"stimulus":"\n                    <p><b>Action: <em>harvest</em></b></p>\n                    <p>This is the bee that you just saw.</p>\n                    <img src=\"bees-with-color/bee-B1SF.svg\" width=\"200\">\n                    <p><span class=\"greenText\"><b>Successful harvest!</b></span><br>Your pay has increased by $0.02. Your bonus pay is now $0.90.</p>\n            ","response":0,"trial_type":"html-button-response","trial_index":94,"time_elapsed":577935,"internal_node_id":"0.0-4.0-1.43","subject_id":"5df2235d5a34251266ea645e","study_id":"6197b3f67c2b5cd3b6d9596a","session_id":"619be31ebc53d924303684a2","condition":"contingent","relevant_dimensions":["antennae","legs"],"bee_group":{"antennae":"A","wings":"X","pattern":"X","legs":"M"},"bonus":1.6800000000000013},{"rt":951.4000000059605,"stimulus":"bees-with-color/bee-B2SF.svg","response":0,"trial_type":"image-button-response","trial_index":95,"time_elapsed":578888,"internal_node_id":"0.0-4.0-0.44","subject_id":"5df2235d5a34251266ea645e","study_id":"6197b3f67c2b5cd3b6d9596a","session_id":"619be31ebc53d924303684a2","condition":"contingent","relevant_dimensions":["antennae","legs"],"bee_group":{"antennae":"A","wings":"X","pattern":"X","legs":"M"},"action":"harvest","summary":"good-harvest","bonus":1.6800000000000013},{"rt":352.80000001192093,"stimulus":"\n                    <p><b>Action: <em>harvest</em></b></p>\n                    <p>This is the bee that you just saw.</p>\n                    <img src=\"bees-with-color/bee-B2SF.svg\" width=\"200\">\n                    <p><span class=\"greenText\"><b>Successful harvest!</b></span><br>Your pay has increased by $0.02. Your bonus pay is now $0.92.</p>\n            ","response":0,"trial_type":"html-button-response","trial_index":96,"time_elapsed":579242,"internal_node_id":"0.0-4.0-1.44","subject_id":"5df2235d5a34251266ea645e","study_id":"6197b3f67c2b5cd3b6d9596a","session_id":"619be31ebc53d924303684a2","condition":"contingent","relevant_dimensions":["antennae","legs"],"bee_group":{"antennae":"A","wings":"X","pattern":"X","legs":"M"},"bonus":1.6800000000000013},{"rt":1457.699999988079,"stimulus":"bees-with-color/bee-A2SF.svg","response":0,"trial_type":"image-button-response","trial_index":97,"time_elapsed":580700,"internal_node_id":"0.0-4.0-0.45","subject_id":"5df2235d5a34251266ea645e","study_id":"6197b3f67c2b5cd3b6d9596a","session_id":"619be31ebc53d924303684a2","condition":"contingent","relevant_dimensions":["antennae","legs"],"bee_group":{"antennae":"A","wings":"X","pattern":"X","legs":"M"},"action":"harvest","summary":"good-harvest","bonus":1.6800000000000013},{"rt":385.5,"stimulus":"\n                    <p><b>Action: <em>harvest</em></b></p>\n                    <p>This is the bee that you just saw.</p>\n                    <img src=\"bees-with-color/bee-A2SF.svg\" width=\"200\">\n                    <p><span class=\"greenText\"><b>Successful harvest!</b></span><br>Your pay has increased by $0.02. Your bonus pay is now $0.94.</p>\n            ","response":0,"trial_type":"html-button-response","trial_index":98,"time_elapsed":581087,"internal_node_id":"0.0-4.0-1.45","subject_id":"5df2235d5a34251266ea645e","study_id":"6197b3f67c2b5cd3b6d9596a","session_id":"619be31ebc53d924303684a2","condition":"contingent","relevant_dimensions":["antennae","legs"],"bee_group":{"antennae":"A","wings":"X","pattern":"X","legs":"M"},"bonus":1.6800000000000013},{"rt":1163,"stimulus":"bees-with-color/bee-B2DM.svg","response":0,"trial_type":"image-button-response","trial_index":99,"time_elapsed":582250,"internal_node_id":"0.0-4.0-0.46","subject_id":"5df2235d5a34251266ea645e","study_id":"6197b3f67c2b5cd3b6d9596a","session_id":"619be31ebc53d924303684a2","condition":"contingent","relevant_dimensions":["antennae","legs"],"bee_group":{"antennae":"A","wings":"X","pattern":"X","legs":"M"},"action":"harvest","summary":"good-harvest","bonus":1.6800000000000013},{"rt":350.09999999403954,"stimulus":"\n                    <p><b>Action: <em>harvest</em></b></p>\n                    <p>This is the bee that you just saw.</p>\n                    <img src=\"bees-with-color/bee-B2DM.svg\" width=\"200\">\n                    <p><span class=\"greenText\"><b>Successful harvest!</b></span><br>Your pay has increased by $0.02. Your bonus pay is now $0.96.</p>\n            ","response":0,"trial_type":"html-button-response","trial_index":100,"time_elapsed":582601,"internal_node_id":"0.0-4.0-1.46","subject_id":"5df2235d5a34251266ea645e","study_id":"6197b3f67c2b5cd3b6d9596a","session_id":"619be31ebc53d924303684a2","condition":"contingent","relevant_dimensions":["antennae","legs"],"bee_group":{"antennae":"A","wings":"X","pattern":"X","legs":"M"},"bonus":1.6800000000000013},{"rt":963,"stimulus":"bees-with-color/bee-A1SM.svg","response":1,"trial_type":"image-button-response","trial_index":101,"time_elapsed":583565,"internal_node_id":"0.0-4.0-0.47","subject_id":"5df2235d5a34251266ea645e","study_id":"6197b3f67c2b5cd3b6d9596a","session_id":"619be31ebc53d924303684a2","condition":"contingent","relevant_dimensions":["antennae","legs"],"bee_group":{"antennae":"A","wings":"X","pattern":"X","legs":"M"},"action":"avoid","summary":"good-avoid","bonus":1.6800000000000013},{"rt":368.39999997615814,"stimulus":"\n                    <p><b>Action: <em>avoid</em></b></p>\n                    <p>This is the bee that you just saw.</p>\n                    <img src=\"bees-with-color/bee-A1SM.svg\" width=\"200\">\n                    <p><br>Your bonus pay is unchanged, and remains at $0.96.</p>\n            ","response":0,"trial_type":"html-button-response","trial_index":102,"time_elapsed":583934,"internal_node_id":"0.0-4.0-1.47","subject_id":"5df2235d5a34251266ea645e","study_id":"6197b3f67c2b5cd3b6d9596a","session_id":"619be31ebc53d924303684a2","condition":"contingent","relevant_dimensions":["antennae","legs"],"bee_group":{"antennae":"A","wings":"X","pattern":"X","legs":"M"},"bonus":1.6800000000000013},{"rt":715.5,"stimulus":"bees-with-color/bee-B2SM.svg","response":0,"trial_type":"image-button-response","trial_index":103,"time_elapsed":584651,"internal_node_id":"0.0-4.0-0.48","subject_id":"5df2235d5a34251266ea645e","study_id":"6197b3f67c2b5cd3b6d9596a","session_id":"619be31ebc53d924303684a2","condition":"contingent","relevant_dimensions":["antennae","legs"],"bee_group":{"antennae":"A","wings":"X","pattern":"X","legs":"M"},"action":"harvest","summary":"good-harvest","bonus":1.6800000000000013},{"rt":403.19999998807907,"stimulus":"\n                    <p><b>Action: <em>harvest</em></b></p>\n                    <p>This is the bee that you just saw.</p>\n                    <img src=\"bees-with-color/bee-B2SM.svg\" width=\"200\">\n                    <p><span class=\"greenText\"><b>Successful harvest!</b></span><br>Your pay has increased by $0.02. Your bonus pay is now $0.98.</p>\n            ","response":0,"trial_type":"html-button-response","trial_index":104,"time_elapsed":585055,"internal_node_id":"0.0-4.0-1.48","subject_id":"5df2235d5a34251266ea645e","study_id":"6197b3f67c2b5cd3b6d9596a","session_id":"619be31ebc53d924303684a2","condition":"contingent","relevant_dimensions":["antennae","legs"],"bee_group":{"antennae":"A","wings":"X","pattern":"X","legs":"M"},"bonus":1.6800000000000013},{"rt":1221.199999988079,"stimulus":"bees-with-color/bee-A2DM.svg","response":1,"trial_type":"image-button-response","trial_index":105,"time_elapsed":586277,"internal_node_id":"0.0-4.0-0.49","subject_id":"5df2235d5a34251266ea645e","study_id":"6197b3f67c2b5cd3b6d9596a","session_id":"619be31ebc53d924303684a2","condition":"contingent","relevant_dimensions":["antennae","legs"],"bee_group":{"antennae":"A","wings":"X","pattern":"X","legs":"M"},"action":"avoid","summary":"good-avoid","bonus":1.6800000000000013},{"rt":397.69999998807907,"stimulus":"\n                    <p><b>Action: <em>avoid</em></b></p>\n                    <p>This is the bee that you just saw.</p>\n                    <img src=\"bees-with-color/bee-A2DM.svg\" width=\"200\">\n                    <p><br>Your bonus pay is unchanged, and remains at $0.98.</p>\n            ","response":0,"trial_type":"html-button-response","trial_index":106,"time_elapsed":586675,"internal_node_id":"0.0-4.0-1.49","subject_id":"5df2235d5a34251266ea645e","study_id":"6197b3f67c2b5cd3b6d9596a","session_id":"619be31ebc53d924303684a2","condition":"contingent","relevant_dimensions":["antennae","legs"],"bee_group":{"antennae":"A","wings":"X","pattern":"X","legs":"M"},"bonus":1.6800000000000013},{"rt":631,"stimulus":"bees-with-color/bee-B1SM.svg","response":0,"trial_type":"image-button-response","trial_index":107,"time_elapsed":587307,"internal_node_id":"0.0-4.0-0.50","subject_id":"5df2235d5a34251266ea645e","study_id":"6197b3f67c2b5cd3b6d9596a","session_id":"619be31ebc53d924303684a2","condition":"contingent","relevant_dimensions":["antennae","legs"],"bee_group":{"antennae":"A","wings":"X","pattern":"X","legs":"M"},"action":"harvest","summary":"good-harvest","bonus":1.6800000000000013},{"rt":391.09999999403954,"stimulus":"\n                    <p><b>Action: <em>harvest</em></b></p>\n                    <p>This is the bee that you just saw.</p>\n                    <img src=\"bees-with-color/bee-B1SM.svg\" width=\"200\">\n                    <p><span class=\"greenText\"><b>Successful harvest!</b></span><br>Your pay has increased by $0.02. Your bonus pay is now $1.00.</p>\n            ","response":0,"trial_type":"html-button-response","trial_index":108,"time_elapsed":587699,"internal_node_id":"0.0-4.0-1.50","subject_id":"5df2235d5a34251266ea645e","study_id":"6197b3f67c2b5cd3b6d9596a","session_id":"619be31ebc53d924303684a2","condition":"contingent","relevant_dimensions":["antennae","legs"],"bee_group":{"antennae":"A","wings":"X","pattern":"X","legs":"M"},"bonus":1.6800000000000013},{"rt":846.1999999880791,"stimulus":"bees-with-color/bee-A2SF.svg","response":0,"trial_type":"image-button-response","trial_index":109,"time_elapsed":588546,"internal_node_id":"0.0-4.0-0.51","subject_id":"5df2235d5a34251266ea645e","study_id":"6197b3f67c2b5cd3b6d9596a","session_id":"619be31ebc53d924303684a2","condition":"contingent","relevant_dimensions":["antennae","legs"],"bee_group":{"antennae":"A","wings":"X","pattern":"X","legs":"M"},"action":"harvest","summary":"good-harvest","bonus":1.6800000000000013},{"rt":336.40000000596046,"stimulus":"\n                    <p><b>Action: <em>harvest</em></b></p>\n                    <p>This is the bee that you just saw.</p>\n                    <img src=\"bees-with-color/bee-A2SF.svg\" width=\"200\">\n                    <p><span class=\"greenText\"><b>Successful harvest!</b></span><br>Your pay has increased by $0.02. Your bonus pay is now $1.02.</p>\n            ","response":0,"trial_type":"html-button-response","trial_index":110,"time_elapsed":588884,"internal_node_id":"0.0-4.0-1.51","subject_id":"5df2235d5a34251266ea645e","study_id":"6197b3f67c2b5cd3b6d9596a","session_id":"619be31ebc53d924303684a2","condition":"contingent","relevant_dimensions":["antennae","legs"],"bee_group":{"antennae":"A","wings":"X","pattern":"X","legs":"M"},"bonus":1.6800000000000013},{"rt":824.8000000119209,"stimulus":"bees-with-color/bee-A1DF.svg","response":0,"trial_type":"image-button-response","trial_index":111,"time_elapsed":589709,"internal_node_id":"0.0-4.0-0.52","subject_id":"5df2235d5a34251266ea645e","study_id":"6197b3f67c2b5cd3b6d9596a","session_id":"619be31ebc53d924303684a2","condition":"contingent","relevant_dimensions":["antennae","legs"],"bee_group":{"antennae":"A","wings":"X","pattern":"X","legs":"M"},"action":"harvest","summary":"good-harvest","bonus":1.6800000000000013},{"rt":665,"stimulus":"\n                    <p><b>Action: <em>harvest</em></b></p>\n                    <p>This is the bee that you just saw.</p>\n                    <img src=\"bees-with-color/bee-A1DF.svg\" width=\"200\">\n                    <p><span class=\"greenText\"><b>Successful harvest!</b></span><br>Your pay has increased by $0.02. Your bonus pay is now $1.04.</p>\n            ","response":0,"trial_type":"html-button-response","trial_index":112,"time_elapsed":590375,"internal_node_id":"0.0-4.0-1.52","subject_id":"5df2235d5a34251266ea645e","study_id":"6197b3f67c2b5cd3b6d9596a","session_id":"619be31ebc53d924303684a2","condition":"contingent","relevant_dimensions":["antennae","legs"],"bee_group":{"antennae":"A","wings":"X","pattern":"X","legs":"M"},"bonus":1.6800000000000013},{"rt":2676.300000011921,"stimulus":"bees-with-color/bee-A1SF.svg","response":0,"trial_type":"image-button-response","trial_index":113,"time_elapsed":593053,"internal_node_id":"0.0-4.0-0.53","subject_id":"5df2235d5a34251266ea645e","study_id":"6197b3f67c2b5cd3b6d9596a","session_id":"619be31ebc53d924303684a2","condition":"contingent","relevant_dimensions":["antennae","legs"],"bee_group":{"antennae":"A","wings":"X","pattern":"X","legs":"M"},"action":"harvest","summary":"good-harvest","bonus":1.6800000000000013},{"rt":352.40000000596046,"stimulus":"\n                    <p><b>Action: <em>harvest</em></b></p>\n                    <p>This is the bee that you just saw.</p>\n                    <img src=\"bees-with-color/bee-A1SF.svg\" width=\"200\">\n                    <p><span class=\"greenText\"><b>Successful harvest!</b></span><br>Your pay has increased by $0.02. Your bonus pay is now $1.06.</p>\n            ","response":0,"trial_type":"html-button-response","trial_index":114,"time_elapsed":593406,"internal_node_id":"0.0-4.0-1.53","subject_id":"5df2235d5a34251266ea645e","study_id":"6197b3f67c2b5cd3b6d9596a","session_id":"619be31ebc53d924303684a2","condition":"contingent","relevant_dimensions":["antennae","legs"],"bee_group":{"antennae":"A","wings":"X","pattern":"X","legs":"M"},"bonus":1.6800000000000013},{"rt":907.6999999880791,"stimulus":"bees-with-color/bee-A1SM.svg","response":1,"trial_type":"image-button-response","trial_index":115,"time_elapsed":594315,"internal_node_id":"0.0-4.0-0.54","subject_id":"5df2235d5a34251266ea645e","study_id":"6197b3f67c2b5cd3b6d9596a","session_id":"619be31ebc53d924303684a2","condition":"contingent","relevant_dimensions":["antennae","legs"],"bee_group":{"antennae":"A","wings":"X","pattern":"X","legs":"M"},"action":"avoid","summary":"good-avoid","bonus":1.6800000000000013},{"rt":329.40000000596046,"stimulus":"\n                    <p><b>Action: <em>avoid</em></b></p>\n                    <p>This is the bee that you just saw.</p>\n                    <img src=\"bees-with-color/bee-A1SM.svg\" width=\"200\">\n                    <p><br>Your bonus pay is unchanged, and remains at $1.06.</p>\n            ","response":0,"trial_type":"html-button-response","trial_index":116,"time_elapsed":594645,"internal_node_id":"0.0-4.0-1.54","subject_id":"5df2235d5a34251266ea645e","study_id":"6197b3f67c2b5cd3b6d9596a","session_id":"619be31ebc53d924303684a2","condition":"contingent","relevant_dimensions":["antennae","legs"],"bee_group":{"antennae":"A","wings":"X","pattern":"X","legs":"M"},"bonus":1.6800000000000013},{"rt":557.5999999940395,"stimulus":"bees-with-color/bee-B1SF.svg","response":0,"trial_type":"image-button-response","trial_index":117,"time_elapsed":595204,"internal_node_id":"0.0-4.0-0.55","subject_id":"5df2235d5a34251266ea645e","study_id":"6197b3f67c2b5cd3b6d9596a","session_id":"619be31ebc53d924303684a2","condition":"contingent","relevant_dimensions":["antennae","legs"],"bee_group":{"antennae":"A","wings":"X","pattern":"X","legs":"M"},"action":"harvest","summary":"good-harvest","bonus":1.6800000000000013},{"rt":362.90000000596046,"stimulus":"\n                    <p><b>Action: <em>harvest</em></b></p>\n                    <p>This is the bee that you just saw.</p>\n                    <img src=\"bees-with-color/bee-B1SF.svg\" width=\"200\">\n                    <p><span class=\"greenText\"><b>Successful harvest!</b></span><br>Your pay has increased by $0.02. Your bonus pay is now $1.08.</p>\n            ","response":0,"trial_type":"html-button-response","trial_index":118,"time_elapsed":595568,"internal_node_id":"0.0-4.0-1.55","subject_id":"5df2235d5a34251266ea645e","study_id":"6197b3f67c2b5cd3b6d9596a","session_id":"619be31ebc53d924303684a2","condition":"contingent","relevant_dimensions":["antennae","legs"],"bee_group":{"antennae":"A","wings":"X","pattern":"X","legs":"M"},"bonus":1.6800000000000013},{"rt":909.5999999940395,"stimulus":"bees-with-color/bee-A2DF.svg","response":0,"trial_type":"image-button-response","trial_index":119,"time_elapsed":596478,"internal_node_id":"0.0-4.0-0.56","subject_id":"5df2235d5a34251266ea645e","study_id":"6197b3f67c2b5cd3b6d9596a","session_id":"619be31ebc53d924303684a2","condition":"contingent","relevant_dimensions":["antennae","legs"],"bee_group":{"antennae":"A","wings":"X","pattern":"X","legs":"M"},"action":"harvest","summary":"good-harvest","bonus":1.6800000000000013},{"rt":279.59999999403954,"stimulus":"\n                    <p><b>Action: <em>harvest</em></b></p>\n                    <p>This is the bee that you just saw.</p>\n                    <img src=\"bees-with-color/bee-A2DF.svg\" width=\"200\">\n                    <p><span class=\"greenText\"><b>Successful harvest!</b></span><br>Your pay has increased by $0.02. Your bonus pay is now $1.10.</p>\n            ","response":0,"trial_type":"html-button-response","trial_index":120,"time_elapsed":596759,"internal_node_id":"0.0-4.0-1.56","subject_id":"5df2235d5a34251266ea645e","study_id":"6197b3f67c2b5cd3b6d9596a","session_id":"619be31ebc53d924303684a2","condition":"contingent","relevant_dimensions":["antennae","legs"],"bee_group":{"antennae":"A","wings":"X","pattern":"X","legs":"M"},"bonus":1.6800000000000013},{"rt":1104.800000011921,"stimulus":"bees-with-color/bee-A2SM.svg","response":1,"trial_type":"image-button-response","trial_index":121,"time_elapsed":597864,"internal_node_id":"0.0-4.0-0.57","subject_id":"5df2235d5a34251266ea645e","study_id":"6197b3f67c2b5cd3b6d9596a","session_id":"619be31ebc53d924303684a2","condition":"contingent","relevant_dimensions":["antennae","legs"],"bee_group":{"antennae":"A","wings":"X","pattern":"X","legs":"M"},"action":"avoid","summary":"good-avoid","bonus":1.6800000000000013},{"rt":429.59999999403954,"stimulus":"\n                    <p><b>Action: <em>avoid</em></b></p>\n                    <p>This is the bee that you just saw.</p>\n                    <img src=\"bees-with-color/bee-A2SM.svg\" width=\"200\">\n                    <p><br>Your bonus pay is unchanged, and remains at $1.10.</p>\n            ","response":0,"trial_type":"html-button-response","trial_index":122,"time_elapsed":598295,"internal_node_id":"0.0-4.0-1.57","subject_id":"5df2235d5a34251266ea645e","study_id":"6197b3f67c2b5cd3b6d9596a","session_id":"619be31ebc53d924303684a2","condition":"contingent","relevant_dimensions":["antennae","legs"],"bee_group":{"antennae":"A","wings":"X","pattern":"X","legs":"M"},"bonus":1.6800000000000013},{"rt":619.8000000119209,"stimulus":"bees-with-color/bee-B2DF.svg","response":0,"trial_type":"image-button-response","trial_index":123,"time_elapsed":598916,"internal_node_id":"0.0-4.0-0.58","subject_id":"5df2235d5a34251266ea645e","study_id":"6197b3f67c2b5cd3b6d9596a","session_id":"619be31ebc53d924303684a2","condition":"contingent","relevant_dimensions":["antennae","legs"],"bee_group":{"antennae":"A","wings":"X","pattern":"X","legs":"M"},"action":"harvest","summary":"good-harvest","bonus":1.6800000000000013},{"rt":809.5999999940395,"stimulus":"\n                    <p><b>Action: <em>harvest</em></b></p>\n                    <p>This is the bee that you just saw.</p>\n                    <img src=\"bees-with-color/bee-B2DF.svg\" width=\"200\">\n                    <p><span class=\"greenText\"><b>Successful harvest!</b></span><br>Your pay has increased by $0.02. Your bonus pay is now $1.12.</p>\n            ","response":0,"trial_type":"html-button-response","trial_index":124,"time_elapsed":599726,"internal_node_id":"0.0-4.0-1.58","subject_id":"5df2235d5a34251266ea645e","study_id":"6197b3f67c2b5cd3b6d9596a","session_id":"619be31ebc53d924303684a2","condition":"contingent","relevant_dimensions":["antennae","legs"],"bee_group":{"antennae":"A","wings":"X","pattern":"X","legs":"M"},"bonus":1.6800000000000013},{"rt":1002,"stimulus":"bees-with-color/bee-A1DM.svg","response":1,"trial_type":"image-button-response","trial_index":125,"time_elapsed":600729,"internal_node_id":"0.0-4.0-0.59","subject_id":"5df2235d5a34251266ea645e","study_id":"6197b3f67c2b5cd3b6d9596a","session_id":"619be31ebc53d924303684a2","condition":"contingent","relevant_dimensions":["antennae","legs"],"bee_group":{"antennae":"A","wings":"X","pattern":"X","legs":"M"},"action":"avoid","summary":"good-avoid","bonus":1.6800000000000013},{"rt":572.2999999821186,"stimulus":"\n                    <p><b>Action: <em>avoid</em></b></p>\n                    <p>This is the bee that you just saw.</p>\n                    <img src=\"bees-with-color/bee-A1DM.svg\" width=\"200\">\n                    <p><br>Your bonus pay is unchanged, and remains at $1.12.</p>\n            ","response":0,"trial_type":"html-button-response","trial_index":126,"time_elapsed":601302,"internal_node_id":"0.0-4.0-1.59","subject_id":"5df2235d5a34251266ea645e","study_id":"6197b3f67c2b5cd3b6d9596a","session_id":"619be31ebc53d924303684a2","condition":"contingent","relevant_dimensions":["antennae","legs"],"bee_group":{"antennae":"A","wings":"X","pattern":"X","legs":"M"},"bonus":1.6800000000000013},{"rt":823.0999999940395,"stimulus":"bees-with-color/bee-B2SF.svg","response":0,"trial_type":"image-button-response","trial_index":127,"time_elapsed":602126,"internal_node_id":"0.0-4.0-0.60","subject_id":"5df2235d5a34251266ea645e","study_id":"6197b3f67c2b5cd3b6d9596a","session_id":"619be31ebc53d924303684a2","condition":"contingent","relevant_dimensions":["antennae","legs"],"bee_group":{"antennae":"A","wings":"X","pattern":"X","legs":"M"},"action":"harvest","summary":"good-harvest","bonus":1.6800000000000013},{"rt":330.40000000596046,"stimulus":"\n                    <p><b>Action: <em>harvest</em></b></p>\n                    <p>This is the bee that you just saw.</p>\n                    <img src=\"bees-with-color/bee-B2SF.svg\" width=\"200\">\n                    <p><span class=\"greenText\"><b>Successful harvest!</b></span><br>Your pay has increased by $0.02. Your bonus pay is now $1.14.</p>\n            ","response":0,"trial_type":"html-button-response","trial_index":128,"time_elapsed":602457,"internal_node_id":"0.0-4.0-1.60","subject_id":"5df2235d5a34251266ea645e","study_id":"6197b3f67c2b5cd3b6d9596a","session_id":"619be31ebc53d924303684a2","condition":"contingent","relevant_dimensions":["antennae","legs"],"bee_group":{"antennae":"A","wings":"X","pattern":"X","legs":"M"},"bonus":1.6800000000000013},{"rt":841.5,"stimulus":"bees-with-color/bee-B2DM.svg","response":0,"trial_type":"image-button-response","trial_index":129,"time_elapsed":603299,"internal_node_id":"0.0-4.0-0.61","subject_id":"5df2235d5a34251266ea645e","study_id":"6197b3f67c2b5cd3b6d9596a","session_id":"619be31ebc53d924303684a2","condition":"contingent","relevant_dimensions":["antennae","legs"],"bee_group":{"antennae":"A","wings":"X","pattern":"X","legs":"M"},"action":"harvest","summary":"good-harvest","bonus":1.6800000000000013},{"rt":378,"stimulus":"\n                    <p><b>Action: <em>harvest</em></b></p>\n                    <p>This is the bee that you just saw.</p>\n                    <img src=\"bees-with-color/bee-B2DM.svg\" width=\"200\">\n                    <p><span class=\"greenText\"><b>Successful harvest!</b></span><br>Your pay has increased by $0.02. Your bonus pay is now $1.16.</p>\n            ","response":0,"trial_type":"html-button-response","trial_index":130,"time_elapsed":603678,"internal_node_id":"0.0-4.0-1.61","subject_id":"5df2235d5a34251266ea645e","study_id":"6197b3f67c2b5cd3b6d9596a","session_id":"619be31ebc53d924303684a2","condition":"contingent","relevant_dimensions":["antennae","legs"],"bee_group":{"antennae":"A","wings":"X","pattern":"X","legs":"M"},"bonus":1.6800000000000013},{"rt":915.1999999880791,"stimulus":"bees-with-color/bee-B1DM.svg","response":0,"trial_type":"image-button-response","trial_index":131,"time_elapsed":604594,"internal_node_id":"0.0-4.0-0.62","subject_id":"5df2235d5a34251266ea645e","study_id":"6197b3f67c2b5cd3b6d9596a","session_id":"619be31ebc53d924303684a2","condition":"contingent","relevant_dimensions":["antennae","legs"],"bee_group":{"antennae":"A","wings":"X","pattern":"X","legs":"M"},"action":"harvest","summary":"good-harvest","bonus":1.6800000000000013},{"rt":434.80000001192093,"stimulus":"\n                    <p><b>Action: <em>harvest</em></b></p>\n                    <p>This is the bee that you just saw.</p>\n                    <img src=\"bees-with-color/bee-B1DM.svg\" width=\"200\">\n                    <p><span class=\"greenText\"><b>Successful harvest!</b></span><br>Your pay has increased by $0.02. Your bonus pay is now $1.18.</p>\n            ","response":0,"trial_type":"html-button-response","trial_index":132,"time_elapsed":605030,"internal_node_id":"0.0-4.0-1.62","subject_id":"5df2235d5a34251266ea645e","study_id":"6197b3f67c2b5cd3b6d9596a","session_id":"619be31ebc53d924303684a2","condition":"contingent","relevant_dimensions":["antennae","legs"],"bee_group":{"antennae":"A","wings":"X","pattern":"X","legs":"M"},"bonus":1.6800000000000013},{"rt":662.0999999940395,"stimulus":"bees-with-color/bee-B1DF.svg","response":0,"trial_type":"image-button-response","trial_index":133,"time_elapsed":605693,"internal_node_id":"0.0-4.0-0.63","subject_id":"5df2235d5a34251266ea645e","study_id":"6197b3f67c2b5cd3b6d9596a","session_id":"619be31ebc53d924303684a2","condition":"contingent","relevant_dimensions":["antennae","legs"],"bee_group":{"antennae":"A","wings":"X","pattern":"X","legs":"M"},"action":"harvest","summary":"good-harvest","bonus":1.6800000000000013},{"rt":381.90000000596046,"stimulus":"\n                    <p><b>Action: <em>harvest</em></b></p>\n                    <p>This is the bee that you just saw.</p>\n                    <img src=\"bees-with-color/bee-B1DF.svg\" width=\"200\">\n                    <p><span class=\"greenText\"><b>Successful harvest!</b></span><br>Your pay has increased by $0.02. Your bonus pay is now $1.20.</p>\n            ","response":0,"trial_type":"html-button-response","trial_index":134,"time_elapsed":606076,"internal_node_id":"0.0-4.0-1.63","subject_id":"5df2235d5a34251266ea645e","study_id":"6197b3f67c2b5cd3b6d9596a","session_id":"619be31ebc53d924303684a2","condition":"contingent","relevant_dimensions":["antennae","legs"],"bee_group":{"antennae":"A","wings":"X","pattern":"X","legs":"M"},"bonus":1.6800000000000013},{"rt":9729.59999999404,"stimulus":"You have completed the first part of this experiment.<br><br>You will now begin a shorter second part, in which you will receive no feedback.<br>The same rules regarding bonus pay apply.<br><br>Press any key to begin.","response":"arrowup","trial_type":"html-keyboard-response","trial_index":135,"time_elapsed":615806,"internal_node_id":"0.0-5.0","subject_id":"5df2235d5a34251266ea645e","study_id":"6197b3f67c2b5cd3b6d9596a","session_id":"619be31ebc53d924303684a2","condition":"contingent","relevant_dimensions":["antennae","legs"],"bee_group":{"antennae":"A","wings":"X","pattern":"X","legs":"M"},"bonus":1.6800000000000013},{"rt":2005.699999988079,"stimulus":"bees-with-color/bee-A2DM.svg","response":1,"trial_type":"image-button-response","trial_index":136,"time_elapsed":617817,"internal_node_id":"0.0-6.0-0.0","subject_id":"5df2235d5a34251266ea645e","study_id":"6197b3f67c2b5cd3b6d9596a","session_id":"619be31ebc53d924303684a2","condition":"contingent","relevant_dimensions":["antennae","legs"],"bee_group":{"antennae":"A","wings":"X","pattern":"X","legs":"M"},"bonus":1.6800000000000013},{"rt":1558.300000011921,"stimulus":"bees-with-color/bee-A1DF.svg","response":0,"trial_type":"image-button-response","trial_index":137,"time_elapsed":619377,"internal_node_id":"0.0-6.0-0.1","subject_id":"5df2235d5a34251266ea645e","study_id":"6197b3f67c2b5cd3b6d9596a","session_id":"619be31ebc53d924303684a2","condition":"contingent","relevant_dimensions":["antennae","legs"],"bee_group":{"antennae":"A","wings":"X","pattern":"X","legs":"M"},"bonus":1.6800000000000013},{"rt":644.0999999940395,"stimulus":"bees-with-color/bee-B2SF.svg","response":0,"trial_type":"image-button-response","trial_index":138,"time_elapsed":620022,"internal_node_id":"0.0-6.0-0.2","subject_id":"5df2235d5a34251266ea645e","study_id":"6197b3f67c2b5cd3b6d9596a","session_id":"619be31ebc53d924303684a2","condition":"contingent","relevant_dimensions":["antennae","legs"],"bee_group":{"antennae":"A","wings":"X","pattern":"X","legs":"M"},"bonus":1.6800000000000013},{"rt":696.7999999821186,"stimulus":"bees-with-color/bee-B2DF.svg","response":0,"trial_type":"image-button-response","trial_index":139,"time_elapsed":620720,"internal_node_id":"0.0-6.0-0.3","subject_id":"5df2235d5a34251266ea645e","study_id":"6197b3f67c2b5cd3b6d9596a","session_id":"619be31ebc53d924303684a2","condition":"contingent","relevant_dimensions":["antennae","legs"],"bee_group":{"antennae":"A","wings":"X","pattern":"X","legs":"M"},"bonus":1.6800000000000013},{"rt":641.0999999940395,"stimulus":"bees-with-color/bee-A2DF.svg","response":0,"trial_type":"image-button-response","trial_index":140,"time_elapsed":621362,"internal_node_id":"0.0-6.0-0.4","subject_id":"5df2235d5a34251266ea645e","study_id":"6197b3f67c2b5cd3b6d9596a","session_id":"619be31ebc53d924303684a2","condition":"contingent","relevant_dimensions":["antennae","legs"],"bee_group":{"antennae":"A","wings":"X","pattern":"X","legs":"M"},"bonus":1.6800000000000013},{"rt":990.3000000119209,"stimulus":"bees-with-color/bee-A1DM.svg","response":1,"trial_type":"image-button-response","trial_index":141,"time_elapsed":622354,"internal_node_id":"0.0-6.0-0.5","subject_id":"5df2235d5a34251266ea645e","study_id":"6197b3f67c2b5cd3b6d9596a","session_id":"619be31ebc53d924303684a2","condition":"contingent","relevant_dimensions":["antennae","legs"],"bee_group":{"antennae":"A","wings":"X","pattern":"X","legs":"M"},"bonus":1.6800000000000013},{"rt":694.7000000178814,"stimulus":"bees-with-color/bee-B1DF.svg","response":0,"trial_type":"image-button-response","trial_index":142,"time_elapsed":623050,"internal_node_id":"0.0-6.0-0.6","subject_id":"5df2235d5a34251266ea645e","study_id":"6197b3f67c2b5cd3b6d9596a","session_id":"619be31ebc53d924303684a2","condition":"contingent","relevant_dimensions":["antennae","legs"],"bee_group":{"antennae":"A","wings":"X","pattern":"X","legs":"M"},"bonus":1.6800000000000013},{"rt":818.3000000119209,"stimulus":"bees-with-color/bee-B2DM.svg","response":0,"trial_type":"image-button-response","trial_index":143,"time_elapsed":623869,"internal_node_id":"0.0-6.0-0.7","subject_id":"5df2235d5a34251266ea645e","study_id":"6197b3f67c2b5cd3b6d9596a","session_id":"619be31ebc53d924303684a2","condition":"contingent","relevant_dimensions":["antennae","legs"],"bee_group":{"antennae":"A","wings":"X","pattern":"X","legs":"M"},"bonus":1.6800000000000013},{"rt":895.6999999880791,"stimulus":"bees-with-color/bee-B1SM.svg","response":0,"trial_type":"image-button-response","trial_index":144,"time_elapsed":624767,"internal_node_id":"0.0-6.0-0.8","subject_id":"5df2235d5a34251266ea645e","study_id":"6197b3f67c2b5cd3b6d9596a","session_id":"619be31ebc53d924303684a2","condition":"contingent","relevant_dimensions":["antennae","legs"],"bee_group":{"antennae":"A","wings":"X","pattern":"X","legs":"M"},"bonus":1.6800000000000013},{"rt":805.8000000119209,"stimulus":"bees-with-color/bee-A2SM.svg","response":1,"trial_type":"image-button-response","trial_index":145,"time_elapsed":625574,"internal_node_id":"0.0-6.0-0.9","subject_id":"5df2235d5a34251266ea645e","study_id":"6197b3f67c2b5cd3b6d9596a","session_id":"619be31ebc53d924303684a2","condition":"contingent","relevant_dimensions":["antennae","legs"],"bee_group":{"antennae":"A","wings":"X","pattern":"X","legs":"M"},"bonus":1.6800000000000013},{"rt":577.6999999880791,"stimulus":"bees-with-color/bee-B1DM.svg","response":0,"trial_type":"image-button-response","trial_index":146,"time_elapsed":626153,"internal_node_id":"0.0-6.0-0.10","subject_id":"5df2235d5a34251266ea645e","study_id":"6197b3f67c2b5cd3b6d9596a","session_id":"619be31ebc53d924303684a2","condition":"contingent","relevant_dimensions":["antennae","legs"],"bee_group":{"antennae":"A","wings":"X","pattern":"X","legs":"M"},"bonus":1.6800000000000013},{"rt":1172.2999999821186,"stimulus":"bees-with-color/bee-A2SF.svg","response":0,"trial_type":"image-button-response","trial_index":147,"time_elapsed":627326,"internal_node_id":"0.0-6.0-0.11","subject_id":"5df2235d5a34251266ea645e","study_id":"6197b3f67c2b5cd3b6d9596a","session_id":"619be31ebc53d924303684a2","condition":"contingent","relevant_dimensions":["antennae","legs"],"bee_group":{"antennae":"A","wings":"X","pattern":"X","legs":"M"},"bonus":1.6800000000000013},{"rt":958.4000000059605,"stimulus":"bees-with-color/bee-A1SF.svg","response":0,"trial_type":"image-button-response","trial_index":148,"time_elapsed":628285,"internal_node_id":"0.0-6.0-0.12","subject_id":"5df2235d5a34251266ea645e","study_id":"6197b3f67c2b5cd3b6d9596a","session_id":"619be31ebc53d924303684a2","condition":"contingent","relevant_dimensions":["antennae","legs"],"bee_group":{"antennae":"A","wings":"X","pattern":"X","legs":"M"},"bonus":1.6800000000000013},{"rt":809.8000000119209,"stimulus":"bees-with-color/bee-A1SM.svg","response":1,"trial_type":"image-button-response","trial_index":149,"time_elapsed":629096,"internal_node_id":"0.0-6.0-0.13","subject_id":"5df2235d5a34251266ea645e","study_id":"6197b3f67c2b5cd3b6d9596a","session_id":"619be31ebc53d924303684a2","condition":"contingent","relevant_dimensions":["antennae","legs"],"bee_group":{"antennae":"A","wings":"X","pattern":"X","legs":"M"},"bonus":1.6800000000000013},{"rt":629.5999999940395,"stimulus":"bees-with-color/bee-B1SF.svg","response":0,"trial_type":"image-button-response","trial_index":150,"time_elapsed":629727,"internal_node_id":"0.0-6.0-0.14","subject_id":"5df2235d5a34251266ea645e","study_id":"6197b3f67c2b5cd3b6d9596a","session_id":"619be31ebc53d924303684a2","condition":"contingent","relevant_dimensions":["antennae","legs"],"bee_group":{"antennae":"A","wings":"X","pattern":"X","legs":"M"},"bonus":1.6800000000000013},{"rt":1092.7999999821186,"stimulus":"bees-with-color/bee-B2SM.svg","response":0,"trial_type":"image-button-response","trial_index":151,"time_elapsed":630821,"internal_node_id":"0.0-6.0-0.15","subject_id":"5df2235d5a34251266ea645e","study_id":"6197b3f67c2b5cd3b6d9596a","session_id":"619be31ebc53d924303684a2","condition":"contingent","relevant_dimensions":["antennae","legs"],"bee_group":{"antennae":"A","wings":"X","pattern":"X","legs":"M"},"bonus":1.6800000000000013},{"rt":1011.1000000238419,"stimulus":"bees-with-color/bee-B2DF.svg","response":0,"trial_type":"image-button-response","trial_index":152,"time_elapsed":631833,"internal_node_id":"0.0-6.0-0.16","subject_id":"5df2235d5a34251266ea645e","study_id":"6197b3f67c2b5cd3b6d9596a","session_id":"619be31ebc53d924303684a2","condition":"contingent","relevant_dimensions":["antennae","legs"],"bee_group":{"antennae":"A","wings":"X","pattern":"X","legs":"M"},"bonus":1.6800000000000013},{"rt":672.5999999940395,"stimulus":"bees-with-color/bee-A1SM.svg","response":1,"trial_type":"image-button-response","trial_index":153,"time_elapsed":632507,"internal_node_id":"0.0-6.0-0.17","subject_id":"5df2235d5a34251266ea645e","study_id":"6197b3f67c2b5cd3b6d9596a","session_id":"619be31ebc53d924303684a2","condition":"contingent","relevant_dimensions":["antennae","legs"],"bee_group":{"antennae":"A","wings":"X","pattern":"X","legs":"M"},"bonus":1.6800000000000013},{"rt":629,"stimulus":"bees-with-color/bee-B1DF.svg","response":0,"trial_type":"image-button-response","trial_index":154,"time_elapsed":633137,"internal_node_id":"0.0-6.0-0.18","subject_id":"5df2235d5a34251266ea645e","study_id":"6197b3f67c2b5cd3b6d9596a","session_id":"619be31ebc53d924303684a2","condition":"contingent","relevant_dimensions":["antennae","legs"],"bee_group":{"antennae":"A","wings":"X","pattern":"X","legs":"M"},"bonus":1.6800000000000013},{"rt":819.6999999880791,"stimulus":"bees-with-color/bee-B1SM.svg","response":0,"trial_type":"image-button-response","trial_index":155,"time_elapsed":633958,"internal_node_id":"0.0-6.0-0.19","subject_id":"5df2235d5a34251266ea645e","study_id":"6197b3f67c2b5cd3b6d9596a","session_id":"619be31ebc53d924303684a2","condition":"contingent","relevant_dimensions":["antennae","legs"],"bee_group":{"antennae":"A","wings":"X","pattern":"X","legs":"M"},"bonus":1.6800000000000013},{"rt":746.4000000059605,"stimulus":"bees-with-color/bee-A1DF.svg","response":0,"trial_type":"image-button-response","trial_index":156,"time_elapsed":634705,"internal_node_id":"0.0-6.0-0.20","subject_id":"5df2235d5a34251266ea645e","study_id":"6197b3f67c2b5cd3b6d9596a","session_id":"619be31ebc53d924303684a2","condition":"contingent","relevant_dimensions":["antennae","legs"],"bee_group":{"antennae":"A","wings":"X","pattern":"X","legs":"M"},"bonus":1.6800000000000013},{"rt":896.3000000119209,"stimulus":"bees-with-color/bee-A2DM.svg","response":1,"trial_type":"image-button-response","trial_index":157,"time_elapsed":635603,"internal_node_id":"0.0-6.0-0.21","subject_id":"5df2235d5a34251266ea645e","study_id":"6197b3f67c2b5cd3b6d9596a","session_id":"619be31ebc53d924303684a2","condition":"contingent","relevant_dimensions":["antennae","legs"],"bee_group":{"antennae":"A","wings":"X","pattern":"X","legs":"M"},"bonus":1.6800000000000013},{"rt":808.0999999940395,"stimulus":"bees-with-color/bee-A1SF.svg","response":0,"trial_type":"image-button-response","trial_index":158,"time_elapsed":636412,"internal_node_id":"0.0-6.0-0.22","subject_id":"5df2235d5a34251266ea645e","study_id":"6197b3f67c2b5cd3b6d9596a","session_id":"619be31ebc53d924303684a2","condition":"contingent","relevant_dimensions":["antennae","legs"],"bee_group":{"antennae":"A","wings":"X","pattern":"X","legs":"M"},"bonus":1.6800000000000013},{"rt":1021.7000000178814,"stimulus":"bees-with-color/bee-B2SF.svg","response":0,"trial_type":"image-button-response","trial_index":159,"time_elapsed":637435,"internal_node_id":"0.0-6.0-0.23","subject_id":"5df2235d5a34251266ea645e","study_id":"6197b3f67c2b5cd3b6d9596a","session_id":"619be31ebc53d924303684a2","condition":"contingent","relevant_dimensions":["antennae","legs"],"bee_group":{"antennae":"A","wings":"X","pattern":"X","legs":"M"},"bonus":1.6800000000000013},{"rt":1216.7999999821186,"stimulus":"bees-with-color/bee-A2DF.svg","response":0,"trial_type":"image-button-response","trial_index":160,"time_elapsed":638653,"internal_node_id":"0.0-6.0-0.24","subject_id":"5df2235d5a34251266ea645e","study_id":"6197b3f67c2b5cd3b6d9596a","session_id":"619be31ebc53d924303684a2","condition":"contingent","relevant_dimensions":["antennae","legs"],"bee_group":{"antennae":"A","wings":"X","pattern":"X","legs":"M"},"bonus":1.6800000000000013},{"rt":1142.800000011921,"stimulus":"bees-with-color/bee-B1DM.svg","response":0,"trial_type":"image-button-response","trial_index":161,"time_elapsed":639797,"internal_node_id":"0.0-6.0-0.25","subject_