[{"success":true,"trial_type":"fullscreen","trial_index":0,"time_elapsed":12780,"internal_node_id":"0.0-0.0","subject_id":"608ac7cd42222f63f6fe7e14","study_id":"60edd13110225f80f9f3709b","session_id":"6196c1f58213d6fdff19a0da","condition":"contingent","relevant_dimensions":["antennae","wings"],"bee_group":{"antennae":"A","wings":"1","pattern":"X","legs":"X"},"bonus":0},{"success":true,"timeout":false,"failed_images":[],"failed_audio":[],"failed_video":[],"trial_type":"preload","trial_index":1,"time_elapsed":14806,"internal_node_id":"0.0-1.0","subject_id":"608ac7cd42222f63f6fe7e14","study_id":"60edd13110225f80f9f3709b","session_id":"6196c1f58213d6fdff19a0da","condition":"contingent","relevant_dimensions":["antennae","wings"],"bee_group":{"antennae":"A","wings":"1","pattern":"X","legs":"X"},"bonus":0},{"rt":2163.699999988079,"stimulus":"Welcome! Press any key to begin.","response":"arrowright","trial_type":"html-keyboard-response","trial_index":2,"time_elapsed":16970,"internal_node_id":"0.0-2.0","subject_id":"608ac7cd42222f63f6fe7e14","study_id":"60edd13110225f80f9f3709b","session_id":"6196c1f58213d6fdff19a0da","condition":"contingent","relevant_dimensions":["antennae","wings"],"bee_group":{"antennae":"A","wings":"1","pattern":"X","legs":"X"},"bonus":0},{"view_history":[{"page_index":0,"viewing_time":4161.199999988079},{"page_index":1,"viewing_time":2574.800000011921},{"page_index":2,"viewing_time":2109.0999999940395},{"page_index":3,"viewing_time":3654.2999999970198},{"page_index":4,"viewing_time":5032.70000000298},{"page_index":5,"viewing_time":1771.0999999940395},{"page_index":6,"viewing_time":1466},{"page_index":7,"viewing_time":4639.20000000298},{"page_index":8,"viewing_time":2505.7999999970198},{"page_index":9,"viewing_time":1502.9000000059605},{"page_index":10,"viewing_time":1839.0999999940395},{"page_index":11,"viewing_time":12417.90000000596},{"page_index":12,"viewing_time":7184.0999999940395},{"page_index":13,"viewing_time":1084},{"page_index":14,"viewing_time":2599.800000011921}],"rt":54542.39999999106,"trial_type":"instructions","trial_index":3,"time_elapsed":71512,"internal_node_id":"0.0-3.0-0.0","subject_id":"608ac7cd42222f63f6fe7e14","study_id":"60edd13110225f80f9f3709b","session_id":"6196c1f58213d6fdff19a0da","condition":"contingent","relevant_dimensions":["antennae","wings"],"bee_group":{"antennae":"A","wings":"1","pattern":"X","legs":"X"},"bonus":0},{"rt":59942.80000001192,"response":{"Q0":["Two or six legs","Stripes or spots on body","Single or double wings"]},"question_order":[0],"trial_type":"survey-multi-select","trial_index":4,"time_elapsed":131458,"internal_node_id":"0.0-3.0-1.0","subject_id":"608ac7cd42222f63f6fe7e14","study_id":"60edd13110225f80f9f3709b","session_id":"6196c1f58213d6fdff19a0da","condition":"contingent","relevant_dimensions":["antennae","wings"],"bee_group":{"antennae":"A","wings":"1","pattern":"X","legs":"X"},"correct":false,"bonus":0},{"rt":102874.79999999702,"response":{"Q1":"No.","Q2":"Based on the four features of the bee.","Q3":"You do not learn if it was friendly or dangerous, and do not alter your bonus."},"question_order":[0,1,2],"trial_type":"survey-multi-choice","trial_index":5,"time_elapsed":234338,"internal_node_id":"0.0-3.0-2.0","subject_id":"608ac7cd42222f63f6fe7e14","study_id":"60edd13110225f80f9f3709b","session_id":"6196c1f58213d6fdff19a0da","condition":"contingent","relevant_dimensions":["antennae","wings"],"bee_group":{"antennae":"A","wings":"1","pattern":"X","legs":"X"},"correct":true,"bonus":0},{"rt":4178.300000011921,"stimulus":"<p>You did not answer all comprehension questions correctly.<br>Press <b>continue</b> to review the instructions again.</p>","response":0,"trial_type":"html-button-response","trial_index":6,"time_elapsed":238521,"internal_node_id":"0.0-3.0-3.0","subject_id":"608ac7cd42222f63f6fe7e14","study_id":"60edd13110225f80f9f3709b","session_id":"6196c1f58213d6fdff19a0da","condition":"contingent","relevant_dimensions":["antennae","wings"],"bee_group":{"antennae":"A","wings":"1","pattern":"X","legs":"X"},"bonus":0},{"view_history":[{"page_index":0,"viewing_time":1442.800000011921},{"page_index":1,"viewing_time":4153},{"page_index":2,"viewing_time":2734},{"page_index":3,"viewing_time":1162},{"page_index":2,"viewing_time":10778.89999999106},{"page_index":3,"viewing_time":8889},{"page_index":4,"viewing_time":5050},{"page_index":5,"viewing_time":1931.4000000059605},{"page_index":6,"viewing_time":6950.20000000298},{"page_index":7,"viewing_time":2398.5},{"page_index":8,"viewing_time":2736.7999999970198},{"page_index":9,"viewing_time":1615.8999999910593},{"page_index":10,"viewing_time":2515.2000000029802},{"page_index":11,"viewing_time":1323},{"page_index":12,"viewing_time":1220},{"page_index":13,"viewing_time":1106.7999999970198},{"page_index":14,"viewing_time":770.1000000089407}],"rt":56778.30000001192,"trial_type":"instructions","trial_index":7,"time_elapsed":295300,"internal_node_id":"0.0-3.0-4.0-0.0","subject_id":"608ac7cd42222f63f6fe7e14","study_id":"60edd13110225f80f9f3709b","session_id":"6196c1f58213d6fdff19a0da","condition":"contingent","relevant_dimensions":["antennae","wings"],"bee_group":{"antennae":"A","wings":"1","pattern":"X","legs":"X"},"bonus":0},{"rt":10562,"response":{"Q0":["Two or six legs","Stripes or spots on body","Single or double wings","Antennae or no antennae"]},"question_order":[0],"trial_type":"survey-multi-select","trial_index":8,"time_elapsed":305865,"internal_node_id":"0.0-3.0-4.0-1.0","subject_id":"608ac7cd42222f63f6fe7e14","study_id":"60edd13110225f80f9f3709b","session_id":"6196c1f58213d6fdff19a0da","condition":"contingent","relevant_dimensions":["antennae","wings"],"bee_group":{"antennae":"A","wings":"1","pattern":"X","legs":"X"},"correct":true,"bonus":0},{"rt":13076.79999999702,"response":{"Q1":"No.","Q2":"Based on the four features of the bee.","Q3":"You do not learn if it was friendly or dangerous, and do not alter your bonus."},"question_order":[0,1,2],"trial_type":"survey-multi-choice","trial_index":9,"time_elapsed":318946,"internal_node_id":"0.0-3.0-4.0-2.0","subject_id":"608ac7cd42222f63f6fe7e14","study_id":"60edd13110225f80f9f3709b","session_id":"6196c1f58213d6fdff19a0da","condition":"contingent","relevant_dimensions":["antennae","wings"],"bee_group":{"antennae":"A","wings":"1","pattern":"X","legs":"X"},"correct":true,"bonus":0},{"rt":2344.6000000089407,"stimulus":"<p>Congrats, you got everything right<br>When you're ready, click the button below to continue to the experiment.</p>","response":0,"trial_type":"html-button-response","trial_index":10,"time_elapsed":321295,"internal_node_id":"0.0-3.0-4.0-3.0","subject_id":"608ac7cd42222f63f6fe7e14","study_id":"60edd13110225f80f9f3709b","session_id":"6196c1f58213d6fdff19a0da","condition":"contingent","relevant_dimensions":["antennae","wings"],"bee_group":{"antennae":"A","wings":"1","pattern":"X","legs":"X"},"bonus":0},{"rt":5170.899999991059,"stimulus":"bees-with-color/bee-A1SF.svg","response":0,"trial_type":"image-button-response","trial_index":11,"time_elapsed":326467,"internal_node_id":"0.0-4.0-0.0","subject_id":"608ac7cd42222f63f6fe7e14","study_id":"60edd13110225f80f9f3709b","session_id":"6196c1f58213d6fdff19a0da","condition":"contingent","relevant_dimensions":["antennae","wings"],"bee_group":{"antennae":"A","wings":"1","pattern":"X","legs":"X"},"action":"harvest","summary":"bad-harvest","bonus":0},{"rt":6509.79999999702,"stimulus":"\n                    <p><b>Action: <em>harvest</em></b></p>\n                    <p>This is the bee that you just saw.</p>\n                    <img src=\"bees-with-color/bee-A1SF.svg\" width=\"200\">\n                    <p><span class=\"redText\">Bad choice, the bee was angry.</span><br><b>You have been stung!</b><br>Your pay has been decreased by $0.10. Your bonus pay is now $0.44.</p>\n            ","response":0,"trial_type":"html-button-response","trial_index":12,"time_elapsed":332979,"internal_node_id":"0.0-4.0-1.0","subject_id":"608ac7cd42222f63f6fe7e14","study_id":"60edd13110225f80f9f3709b","session_id":"6196c1f58213d6fdff19a0da","condition":"contingent","relevant_dimensions":["antennae","wings"],"bee_group":{"antennae":"A","wings":"1","pattern":"X","legs":"X"},"bonus":0},{"rt":2421.2999999970198,"stimulus":"bees-with-color/bee-A2SM.svg","response":0,"trial_type":"image-button-response","trial_index":13,"time_elapsed":335401,"internal_node_id":"0.0-4.0-0.1","subject_id":"608ac7cd42222f63f6fe7e14","study_id":"60edd13110225f80f9f3709b","session_id":"6196c1f58213d6fdff19a0da","condition":"contingent","relevant_dimensions":["antennae","wings"],"bee_group":{"antennae":"A","wings":"1","pattern":"X","legs":"X"},"action":"harvest","summary":"good-harvest","bonus":0},{"rt":2430,"stimulus":"\n                    <p><b>Action: <em>harvest</em></b></p>\n                    <p>This is the bee that you just saw.</p>\n                    <img src=\"bees-with-color/bee-A2SM.svg\" width=\"200\">\n                    <p><span class=\"greenText\"><b>Successful harvest!</b></span><br>Your pay has increased by $0.02. Your bonus pay is now $0.46.</p>\n            ","response":0,"trial_type":"html-button-response","trial_index":14,"time_elapsed":337833,"internal_node_id":"0.0-4.0-1.1","subject_id":"608ac7cd42222f63f6fe7e14","study_id":"60edd13110225f80f9f3709b","session_id":"6196c1f58213d6fdff19a0da","condition":"contingent","relevant_dimensions":["antennae","wings"],"bee_group":{"antennae":"A","wings":"1","pattern":"X","legs":"X"},"bonus":0},{"rt":1373.7000000029802,"stimulus":"bees-with-color/bee-B1SF.svg","response":1,"trial_type":"image-button-response","trial_index":15,"time_elapsed":339207,"internal_node_id":"0.0-4.0-0.2","subject_id":"608ac7cd42222f63f6fe7e14","study_id":"60edd13110225f80f9f3709b","session_id":"6196c1f58213d6fdff19a0da","condition":"contingent","relevant_dimensions":["antennae","wings"],"bee_group":{"antennae":"A","wings":"1","pattern":"X","legs":"X"},"action":"avoid","summary":"bad-avoid","bonus":0},{"rt":1576.800000011921,"stimulus":"\n                    <p><b>Action: <em>avoid</em></b></p>\n                    <p>This is the bee that you just saw.</p>\n                    <img src=\"bees-with-color/bee-B1SF.svg\" width=\"200\">\n                    <p><br>Your bonus pay is unchanged, and remains at $0.46.</p>\n            ","response":0,"trial_type":"html-button-response","trial_index":16,"time_elapsed":340785,"internal_node_id":"0.0-4.0-1.2","subject_id":"608ac7cd42222f63f6fe7e14","study_id":"60edd13110225f80f9f3709b","session_id":"6196c1f58213d6fdff19a0da","condition":"contingent","relevant_dimensions":["antennae","wings"],"bee_group":{"antennae":"A","wings":"1","pattern":"X","legs":"X"},"bonus":0},{"rt":1709.4000000059605,"stimulus":"bees-with-color/bee-B2SM.svg","response":0,"trial_type":"image-button-response","trial_index":17,"time_elapsed":342495,"internal_node_id":"0.0-4.0-0.3","subject_id":"608ac7cd42222f63f6fe7e14","study_id":"60edd13110225f80f9f3709b","session_id":"6196c1f58213d6fdff19a0da","condition":"contingent","relevant_dimensions":["antennae","wings"],"bee_group":{"antennae":"A","wings":"1","pattern":"X","legs":"X"},"action":"harvest","summary":"good-harvest","bonus":0},{"rt":811.6999999880791,"stimulus":"\n                    <p><b>Action: <em>harvest</em></b></p>\n                    <p>This is the bee that you just saw.</p>\n                    <img src=\"bees-with-color/bee-B2SM.svg\" width=\"200\">\n                    <p><span class=\"greenText\"><b>Successful harvest!</b></span><br>Your pay has increased by $0.02. Your bonus pay is now $0.48.</p>\n            ","response":0,"trial_type":"html-button-response","trial_index":18,"time_elapsed":343308,"internal_node_id":"0.0-4.0-1.3","subject_id":"608ac7cd42222f63f6fe7e14","study_id":"60edd13110225f80f9f3709b","session_id":"6196c1f58213d6fdff19a0da","condition":"contingent","relevant_dimensions":["antennae","wings"],"bee_group":{"antennae":"A","wings":"1","pattern":"X","legs":"X"},"bonus":0},{"rt":2462.2000000029802,"stimulus":"bees-with-color/bee-B2SF.svg","response":0,"trial_type":"image-button-response","trial_index":19,"time_elapsed":345772,"internal_node_id":"0.0-4.0-0.4","subject_id":"608ac7cd42222f63f6fe7e14","study_id":"60edd13110225f80f9f3709b","session_id":"6196c1f58213d6fdff19a0da","condition":"contingent","relevant_dimensions":["antennae","wings"],"bee_group":{"antennae":"A","wings":"1","pattern":"X","legs":"X"},"action":"harvest","summary":"good-harvest","bonus":0},{"rt":742.7999999970198,"stimulus":"\n                    <p><b>Action: <em>harvest</em></b></p>\n                    <p>This is the bee that you just saw.</p>\n                    <img src=\"bees-with-color/bee-B2SF.svg\" width=\"200\">\n                    <p><span class=\"greenText\"><b>Successful harvest!</b></span><br>Your pay has increased by $0.02. Your bonus pay is now $0.50.</p>\n            ","response":0,"trial_type":"html-button-response","trial_index":20,"time_elapsed":346515,"internal_node_id":"0.0-4.0-1.4","subject_id":"608ac7cd42222f63f6fe7e14","study_id":"60edd13110225f80f9f3709b","session_id":"6196c1f58213d6fdff19a0da","condition":"contingent","relevant_dimensions":["antennae","wings"],"bee_group":{"antennae":"A","wings":"1","pattern":"X","legs":"X"},"bonus":0},{"rt":3266.1000000089407,"stimulus":"bees-with-color/bee-A1DM.svg","response":1,"trial_type":"image-button-response","trial_index":21,"time_elapsed":349783,"internal_node_id":"0.0-4.0-0.5","subject_id":"608ac7cd42222f63f6fe7e14","study_id":"60edd13110225f80f9f3709b","session_id":"6196c1f58213d6fdff19a0da","condition":"contingent","relevant_dimensions":["antennae","wings"],"bee_group":{"antennae":"A","wings":"1","pattern":"X","legs":"X"},"action":"avoid","summary":"good-avoid","bonus":0},{"rt":769.7999999970198,"stimulus":"\n                    <p><b>Action: <em>avoid</em></b></p>\n                    <p>This is the bee that you just saw.</p>\n                    <img src=\"bees-with-color/bee-A1DM.svg\" width=\"200\">\n                    <p><br>Your bonus pay is unchanged, and remains at $0.50.</p>\n            ","response":0,"trial_type":"html-button-response","trial_index":22,"time_elapsed":350553,"internal_node_id":"0.0-4.0-1.5","subject_id":"608ac7cd42222f63f6fe7e14","study_id":"60edd13110225f80f9f3709b","session_id":"6196c1f58213d6fdff19a0da","condition":"contingent","relevant_dimensions":["antennae","wings"],"bee_group":{"antennae":"A","wings":"1","pattern":"X","legs":"X"},"bonus":0},{"rt":2582.7999999970198,"stimulus":"bees-with-color/bee-A2SF.svg","response":0,"trial_type":"image-button-response","trial_index":23,"time_elapsed":353138,"internal_node_id":"0.0-4.0-0.6","subject_id":"608ac7cd42222f63f6fe7e14","study_id":"60edd13110225f80f9f3709b","session_id":"6196c1f58213d6fdff19a0da","condition":"contingent","relevant_dimensions":["antennae","wings"],"bee_group":{"antennae":"A","wings":"1","pattern":"X","legs":"X"},"action":"harvest","summary":"good-harvest","bonus":0},{"rt":867.1000000089407,"stimulus":"\n                    <p><b>Action: <em>harvest</em></b></p>\n                    <p>This is the bee that you just saw.</p>\n                    <img src=\"bees-with-color/bee-A2SF.svg\" width=\"200\">\n                    <p><span class=\"greenText\"><b>Successful harvest!</b></span><br>Your pay has increased by $0.02. Your bonus pay is now $0.52.</p>\n            ","response":0,"trial_type":"html-button-response","trial_index":24,"time_elapsed":354006,"internal_node_id":"0.0-4.0-1.6","subject_id":"608ac7cd42222f63f6fe7e14","study_id":"60edd13110225f80f9f3709b","session_id":"6196c1f58213d6fdff19a0da","condition":"contingent","relevant_dimensions":["antennae","wings"],"bee_group":{"antennae":"A","wings":"1","pattern":"X","legs":"X"},"bonus":0},{"rt":2117.8999999910593,"stimulus":"bees-with-color/bee-A2DM.svg","response":0,"trial_type":"image-button-response","trial_index":25,"time_elapsed":356125,"internal_node_id":"0.0-4.0-0.7","subject_id":"608ac7cd42222f63f6fe7e14","study_id":"60edd13110225f80f9f3709b","session_id":"6196c1f58213d6fdff19a0da","condition":"contingent","relevant_dimensions":["antennae","wings"],"bee_group":{"antennae":"A","wings":"1","pattern":"X","legs":"X"},"action":"harvest","summary":"good-harvest","bonus":0},{"rt":692.7000000029802,"stimulus":"\n                    <p><b>Action: <em>harvest</em></b></p>\n                    <p>This is the bee that you just saw.</p>\n                    <img src=\"bees-with-color/bee-A2DM.svg\" width=\"200\">\n                    <p><span class=\"greenText\"><b>Successful harvest!</b></span><br>Your pay has increased by $0.02. Your bonus pay is now $0.54.</p>\n            ","response":0,"trial_type":"html-button-response","trial_index":26,"time_elapsed":356819,"internal_node_id":"0.0-4.0-1.7","subject_id":"608ac7cd42222f63f6fe7e14","study_id":"60edd13110225f80f9f3709b","session_id":"6196c1f58213d6fdff19a0da","condition":"contingent","relevant_dimensions":["antennae","wings"],"bee_group":{"antennae":"A","wings":"1","pattern":"X","legs":"X"},"bonus":0},{"rt":1701.9000000059605,"stimulus":"bees-with-color/bee-A2DF.svg","response":0,"trial_type":"image-button-response","trial_index":27,"time_elapsed":358522,"internal_node_id":"0.0-4.0-0.8","subject_id":"608ac7cd42222f63f6fe7e14","study_id":"60edd13110225f80f9f3709b","session_id":"6196c1f58213d6fdff19a0da","condition":"contingent","relevant_dimensions":["antennae","wings"],"bee_group":{"antennae":"A","wings":"1","pattern":"X","legs":"X"},"action":"harvest","summary":"good-harvest","bonus":0},{"rt":775,"stimulus":"\n                    <p><b>Action: <em>harvest</em></b></p>\n                    <p>This is the bee that you just saw.</p>\n                    <img src=\"bees-with-color/bee-A2DF.svg\" width=\"200\">\n                    <p><span class=\"greenText\"><b>Successful harvest!</b></span><br>Your pay has increased by $0.02. Your bonus pay is now $0.56.</p>\n            ","response":0,"trial_type":"html-button-response","trial_index":28,"time_elapsed":359298,"internal_node_id":"0.0-4.0-1.8","subject_id":"608ac7cd42222f63f6fe7e14","study_id":"60edd13110225f80f9f3709b","session_id":"6196c1f58213d6fdff19a0da","condition":"contingent","relevant_dimensions":["antennae","wings"],"bee_group":{"antennae":"A","wings":"1","pattern":"X","legs":"X"},"bonus":0},{"rt":2159.2000000029802,"stimulus":"bees-with-color/bee-B2DM.svg","response":0,"trial_type":"image-button-response","trial_index":29,"time_elapsed":361458,"internal_node_id":"0.0-4.0-0.9","subject_id":"608ac7cd42222f63f6fe7e14","study_id":"60edd13110225f80f9f3709b","session_id":"6196c1f58213d6fdff19a0da","condition":"contingent","relevant_dimensions":["antennae","wings"],"bee_group":{"antennae":"A","wings":"1","pattern":"X","legs":"X"},"action":"harvest","summary":"good-harvest","bonus":0},{"rt":779,"stimulus":"\n                    <p><b>Action: <em>harvest</em></b></p>\n                    <p>This is the bee that you just saw.</p>\n                    <img src=\"bees-with-color/bee-B2DM.svg\" width=\"200\">\n                    <p><span class=\"greenText\"><b>Successful harvest!</b></span><br>Your pay has increased by $0.02. Your bonus pay is now $0.58.</p>\n            ","response":0,"trial_type":"html-button-response","trial_index":30,"time_elapsed":362238,"internal_node_id":"0.0-4.0-1.9","subject_id":"608ac7cd42222f63f6fe7e14","study_id":"60edd13110225f80f9f3709b","session_id":"6196c1f58213d6fdff19a0da","condition":"contingent","relevant_dimensions":["antennae","wings"],"bee_group":{"antennae":"A","wings":"1","pattern":"X","legs":"X"},"bonus":0},{"rt":1561.7000000029802,"stimulus":"bees-with-color/bee-A1SM.svg","response":1,"trial_type":"image-button-response","trial_index":31,"time_elapsed":363801,"internal_node_id":"0.0-4.0-0.10","subject_id":"608ac7cd42222f63f6fe7e14","study_id":"60edd13110225f80f9f3709b","session_id":"6196c1f58213d6fdff19a0da","condition":"contingent","relevant_dimensions":["antennae","wings"],"bee_group":{"antennae":"A","wings":"1","pattern":"X","legs":"X"},"action":"avoid","summary":"good-avoid","bonus":0},{"rt":971.1000000089407,"stimulus":"\n                    <p><b>Action: <em>avoid</em></b></p>\n                    <p>This is the bee that you just saw.</p>\n                    <img src=\"bees-with-color/bee-A1SM.svg\" width=\"200\">\n                    <p><br>Your bonus pay is unchanged, and remains at $0.58.</p>\n            ","response":0,"trial_type":"html-button-response","trial_index":32,"time_elapsed":364773,"internal_node_id":"0.0-4.0-1.10","subject_id":"608ac7cd42222f63f6fe7e14","study_id":"60edd13110225f80f9f3709b","session_id":"6196c1f58213d6fdff19a0da","condition":"contingent","relevant_dimensions":["antennae","wings"],"bee_group":{"antennae":"A","wings":"1","pattern":"X","legs":"X"},"bonus":0},{"rt":1430.8999999910593,"stimulus":"bees-with-color/bee-B1DF.svg","response":0,"trial_type":"image-button-response","trial_index":33,"time_elapsed":366205,"internal_node_id":"0.0-4.0-0.11","subject_id":"608ac7cd42222f63f6fe7e14","study_id":"60edd13110225f80f9f3709b","session_id":"6196c1f58213d6fdff19a0da","condition":"contingent","relevant_dimensions":["antennae","wings"],"bee_group":{"antennae":"A","wings":"1","pattern":"X","legs":"X"},"action":"harvest","summary":"good-harvest","bonus":0},{"rt":798.0999999940395,"stimulus":"\n                    <p><b>Action: <em>harvest</em></b></p>\n                    <p>This is the bee that you just saw.</p>\n                    <img src=\"bees-with-color/bee-B1DF.svg\" width=\"200\">\n                    <p><span class=\"greenText\"><b>Successful harvest!</b></span><br>Your pay has increased by $0.02. Your bonus pay is now $0.60.</p>\n            ","response":0,"trial_type":"html-button-response","trial_index":34,"time_elapsed":367004,"internal_node_id":"0.0-4.0-1.11","subject_id":"608ac7cd42222f63f6fe7e14","study_id":"60edd13110225f80f9f3709b","session_id":"6196c1f58213d6fdff19a0da","condition":"contingent","relevant_dimensions":["antennae","wings"],"bee_group":{"antennae":"A","wings":"1","pattern":"X","legs":"X"},"bonus":0},{"rt":1932.3999999910593,"stimulus":"bees-with-color/bee-B2DF.svg","response":0,"trial_type":"image-button-response","trial_index":35,"time_elapsed":368937,"internal_node_id":"0.0-4.0-0.12","subject_id":"608ac7cd42222f63f6fe7e14","study_id":"60edd13110225f80f9f3709b","session_id":"6196c1f58213d6fdff19a0da","condition":"contingent","relevant_dimensions":["antennae","wings"],"bee_group":{"antennae":"A","wings":"1","pattern":"X","legs":"X"},"action":"harvest","summary":"good-harvest","bonus":0},{"rt":630.3999999910593,"stimulus":"\n                    <p><b>Action: <em>harvest</em></b></p>\n                    <p>This is the bee that you just saw.</p>\n                    <img src=\"bees-with-color/bee-B2DF.svg\" width=\"200\">\n                    <p><span class=\"greenText\"><b>Successful harvest!</b></span><br>Your pay has increased by $0.02. Your bonus pay is now $0.62.</p>\n            ","response":0,"trial_type":"html-button-response","trial_index":36,"time_elapsed":369568,"internal_node_id":"0.0-4.0-1.12","subject_id":"608ac7cd42222f63f6fe7e14","study_id":"60edd13110225f80f9f3709b","session_id":"6196c1f58213d6fdff19a0da","condition":"contingent","relevant_dimensions":["antennae","wings"],"bee_group":{"antennae":"A","wings":"1","pattern":"X","legs":"X"},"bonus":0},{"rt":1045.9000000059605,"stimulus":"bees-with-color/bee-B1SM.svg","response":1,"trial_type":"image-button-response","trial_index":37,"time_elapsed":370615,"internal_node_id":"0.0-4.0-0.13","subject_id":"608ac7cd42222f63f6fe7e14","study_id":"60edd13110225f80f9f3709b","session_id":"6196c1f58213d6fdff19a0da","condition":"contingent","relevant_dimensions":["antennae","wings"],"bee_group":{"antennae":"A","wings":"1","pattern":"X","legs":"X"},"action":"avoid","summary":"bad-avoid","bonus":0},{"rt":931,"stimulus":"\n                    <p><b>Action: <em>avoid</em></b></p>\n                    <p>This is the bee that you just saw.</p>\n                    <img src=\"bees-with-color/bee-B1SM.svg\" width=\"200\">\n                    <p><br>Your bonus pay is unchanged, and remains at $0.62.</p>\n            ","response":0,"trial_type":"html-button-response","trial_index":38,"time_elapsed":371547,"internal_node_id":"0.0-4.0-1.13","subject_id":"608ac7cd42222f63f6fe7e14","study_id":"60edd13110225f80f9f3709b","session_id":"6196c1f58213d6fdff19a0da","condition":"contingent","relevant_dimensions":["antennae","wings"],"bee_group":{"antennae":"A","wings":"1","pattern":"X","legs":"X"},"bonus":0},{"rt":791,"stimulus":"bees-with-color/bee-A1DF.svg","response":0,"trial_type":"image-button-response","trial_index":39,"time_elapsed":372339,"internal_node_id":"0.0-4.0-0.14","subject_id":"608ac7cd42222f63f6fe7e14","study_id":"60edd13110225f80f9f3709b","session_id":"6196c1f58213d6fdff19a0da","condition":"contingent","relevant_dimensions":["antennae","wings"],"bee_group":{"antennae":"A","wings":"1","pattern":"X","legs":"X"},"action":"harvest","summary":"bad-harvest","bonus":0},{"rt":1793.2000000029802,"stimulus":"\n                    <p><b>Action: <em>harvest</em></b></p>\n                    <p>This is the bee that you just saw.</p>\n                    <img src=\"bees-with-color/bee-A1DF.svg\" width=\"200\">\n                    <p><span class=\"redText\">Bad choice, the bee was angry.</span><br><b>You have been stung!</b><br>Your pay has been decreased by $0.10. Your bonus pay is now $0.52.</p>\n            ","response":0,"trial_type":"html-button-response","trial_index":40,"time_elapsed":374133,"internal_node_id":"0.0-4.0-1.14","subject_id":"608ac7cd42222f63f6fe7e14","study_id":"60edd13110225f80f9f3709b","session_id":"6196c1f58213d6fdff19a0da","condition":"contingent","relevant_dimensions":["antennae","wings"],"bee_group":{"antennae":"A","wings":"1","pattern":"X","legs":"X"},"bonus":0},{"rt":1821.2000000029802,"stimulus":"bees-with-color/bee-B1DM.svg","response":0,"trial_type":"image-button-response","trial_index":41,"time_elapsed":375955,"internal_node_id":"0.0-4.0-0.15","subject_id":"608ac7cd42222f63f6fe7e14","study_id":"60edd13110225f80f9f3709b","session_id":"6196c1f58213d6fdff19a0da","condition":"contingent","relevant_dimensions":["antennae","wings"],"bee_group":{"antennae":"A","wings":"1","pattern":"X","legs":"X"},"action":"harvest","summary":"good-harvest","bonus":0},{"rt":936,"stimulus":"\n                    <p><b>Action: <em>harvest</em></b></p>\n                    <p>This is the bee that you just saw.</p>\n                    <img src=\"bees-with-color/bee-B1DM.svg\" width=\"200\">\n                    <p><span class=\"greenText\"><b>Successful harvest!</b></span><br>Your pay has increased by $0.02. Your bonus pay is now $0.54.</p>\n            ","response":0,"trial_type":"html-button-response","trial_index":42,"time_elapsed":376892,"internal_node_id":"0.0-4.0-1.15","subject_id":"608ac7cd42222f63f6fe7e14","study_id":"60edd13110225f80f9f3709b","session_id":"6196c1f58213d6fdff19a0da","condition":"contingent","relevant_dimensions":["antennae","wings"],"bee_group":{"antennae":"A","wings":"1","pattern":"X","legs":"X"},"bonus":0},{"rt":1520.9000000059605,"stimulus":"bees-with-color/bee-B2SM.svg","response":1,"trial_type":"image-button-response","trial_index":43,"time_elapsed":378414,"internal_node_id":"0.0-4.0-0.16","subject_id":"608ac7cd42222f63f6fe7e14","study_id":"60edd13110225f80f9f3709b","session_id":"6196c1f58213d6fdff19a0da","condition":"contingent","relevant_dimensions":["antennae","wings"],"bee_group":{"antennae":"A","wings":"1","pattern":"X","legs":"X"},"action":"avoid","summary":"bad-avoid","bonus":0},{"rt":568.7000000029802,"stimulus":"\n                    <p><b>Action: <em>avoid</em></b></p>\n                    <p>This is the bee that you just saw.</p>\n                    <img src=\"bees-with-color/bee-B2SM.svg\" width=\"200\">\n                    <p><br>Your bonus pay is unchanged, and remains at $0.54.</p>\n            ","response":0,"trial_type":"html-button-response","trial_index":44,"time_elapsed":378983,"internal_node_id":"0.0-4.0-1.16","subject_id":"608ac7cd42222f63f6fe7e14","study_id":"60edd13110225f80f9f3709b","session_id":"6196c1f58213d6fdff19a0da","condition":"contingent","relevant_dimensions":["antennae","wings"],"bee_group":{"antennae":"A","wings":"1","pattern":"X","legs":"X"},"bonus":0},{"rt":1692.5999999940395,"stimulus":"bees-with-color/bee-B1SM.svg","response":0,"trial_type":"image-button-response","trial_index":45,"time_elapsed":380677,"internal_node_id":"0.0-4.0-0.17","subject_id":"608ac7cd42222f63f6fe7e14","study_id":"60edd13110225f80f9f3709b","session_id":"6196c1f58213d6fdff19a0da","condition":"contingent","relevant_dimensions":["antennae","wings"],"bee_group":{"antennae":"A","wings":"1","pattern":"X","legs":"X"},"action":"harvest","summary":"good-harvest","bonus":0},{"rt":799,"stimulus":"\n                    <p><b>Action: <em>harvest</em></b></p>\n                    <p>This is the bee that you just saw.</p>\n                    <img src=\"bees-with-color/bee-B1SM.svg\" width=\"200\">\n                    <p><span class=\"greenText\"><b>Successful harvest!</b></span><br>Your pay has increased by $0.02. Your bonus pay is now $0.56.</p>\n            ","response":0,"trial_type":"html-button-response","trial_index":46,"time_elapsed":381477,"internal_node_id":"0.0-4.0-1.17","subject_id":"608ac7cd42222f63f6fe7e14","study_id":"60edd13110225f80f9f3709b","session_id":"6196c1f58213d6fdff19a0da","condition":"contingent","relevant_dimensions":["antennae","wings"],"bee_group":{"antennae":"A","wings":"1","pattern":"X","legs":"X"},"bonus":0},{"rt":2201.8999999910593,"stimulus":"bees-with-color/bee-A1DM.svg","response":1,"trial_type":"image-button-response","trial_index":47,"time_elapsed":383680,"internal_node_id":"0.0-4.0-0.18","subject_id":"608ac7cd42222f63f6fe7e14","study_id":"60edd13110225f80f9f3709b","session_id":"6196c1f58213d6fdff19a0da","condition":"contingent","relevant_dimensions":["antennae","wings"],"bee_group":{"antennae":"A","wings":"1","pattern":"X","legs":"X"},"action":"avoid","summary":"good-avoid","bonus":0},{"rt":1003.2999999970198,"stimulus":"\n                    <p><b>Action: <em>avoid</em></b></p>\n                    <p>This is the bee that you just saw.</p>\n                    <img src=\"bees-with-color/bee-A1DM.svg\" width=\"200\">\n                    <p><br>Your bonus pay is unchanged, and remains at $0.56.</p>\n            ","response":0,"trial_type":"html-button-response","trial_index":48,"time_elapsed":384684,"internal_node_id":"0.0-4.0-1.18","subject_id":"608ac7cd42222f63f6fe7e14","study_id":"60edd13110225f80f9f3709b","session_id":"6196c1f58213d6fdff19a0da","condition":"contingent","relevant_dimensions":["antennae","wings"],"bee_group":{"antennae":"A","wings":"1","pattern":"X","legs":"X"},"bonus":0},{"rt":1665,"stimulus":"bees-with-color/bee-A1SM.svg","response":1,"trial_type":"image-button-response","trial_index":49,"time_elapsed":386350,"internal_node_id":"0.0-4.0-0.19","subject_id":"608ac7cd42222f63f6fe7e14","study_id":"60edd13110225f80f9f3709b","session_id":"6196c1f58213d6fdff19a0da","condition":"contingent","relevant_dimensions":["antennae","wings"],"bee_group":{"antennae":"A","wings":"1","pattern":"X","legs":"X"},"action":"avoid","summary":"good-avoid","bonus":0},{"rt":384.90000000596046,"stimulus":"\n                    <p><b>Action: <em>avoid</em></b></p>\n                    <p>This is the bee that you just saw.</p>\n                    <img src=\"bees-with-color/bee-A1SM.svg\" width=\"200\">\n                    <p><br>Your bonus pay is unchanged, and remains at $0.56.</p>\n            ","response":0,"trial_type":"html-button-response","trial_index":50,"time_elapsed":386736,"internal_node_id":"0.0-4.0-1.19","subject_id":"608ac7cd42222f63f6fe7e14","study_id":"60edd13110225f80f9f3709b","session_id":"6196c1f58213d6fdff19a0da","condition":"contingent","relevant_dimensions":["antennae","wings"],"bee_group":{"antennae":"A","wings":"1","pattern":"X","legs":"X"},"bonus":0},{"rt":661.4000000059605,"stimulus":"bees-with-color/bee-A2DF.svg","response":0,"trial_type":"image-button-response","trial_index":51,"time_elapsed":387398,"internal_node_id":"0.0-4.0-0.20","subject_id":"608ac7cd42222f63f6fe7e14","study_id":"60edd13110225f80f9f3709b","session_id":"6196c1f58213d6fdff19a0da","condition":"contingent","relevant_dimensions":["antennae","wings"],"bee_group":{"antennae":"A","wings":"1","pattern":"X","legs":"X"},"action":"harvest","summary":"good-harvest","bonus":0},{"rt":540.8999999910593,"stimulus":"\n                    <p><b>Action: <em>harvest</em></b></p>\n                    <p>This is the bee that you just saw.</p>\n                    <img src=\"bees-with-color/bee-A2DF.svg\" width=\"200\">\n                    <p><span class=\"greenText\"><b>Successful harvest!</b></span><br>Your pay has increased by $0.02. Your bonus pay is now $0.58.</p>\n            ","response":0,"trial_type":"html-button-response","trial_index":52,"time_elapsed":387940,"internal_node_id":"0.0-4.0-1.20","subject_id":"608ac7cd42222f63f6fe7e14","study_id":"60edd13110225f80f9f3709b","session_id":"6196c1f58213d6fdff19a0da","condition":"contingent","relevant_dimensions":["antennae","wings"],"bee_group":{"antennae":"A","wings":"1","pattern":"X","legs":"X"},"bonus":0},{"rt":1476.2999999970198,"stimulus":"bees-with-color/bee-B1SF.svg","response":1,"trial_type":"image-button-response","trial_index":53,"time_elapsed":389417,"internal_node_id":"0.0-4.0-0.21","subject_id":"608ac7cd42222f63f6fe7e14","study_id":"60edd13110225f80f9f3709b","session_id":"6196c1f58213d6fdff19a0da","condition":"contingent","relevant_dimensions":["antennae","wings"],"bee_group":{"antennae":"A","wings":"1","pattern":"X","legs":"X"},"action":"avoid","summary":"bad-avoid","bonus":0},{"rt":750.1000000089407,"stimulus":"\n                    <p><b>Action: <em>avoid</em></b></p>\n                    <p>This is the bee that you just saw.</p>\n                    <img src=\"bees-with-color/bee-B1SF.svg\" width=\"200\">\n                    <p><br>Your bonus pay is unchanged, and remains at $0.58.</p>\n            ","response":0,"trial_type":"html-button-response","trial_index":54,"time_elapsed":390168,"internal_node_id":"0.0-4.0-1.21","subject_id":"608ac7cd42222f63f6fe7e14","study_id":"60edd13110225f80f9f3709b","session_id":"6196c1f58213d6fdff19a0da","condition":"contingent","relevant_dimensions":["antennae","wings"],"bee_group":{"antennae":"A","wings":"1","pattern":"X","legs":"X"},"bonus":0},{"rt":905.0999999940395,"stimulus":"bees-with-color/bee-B2DM.svg","response":0,"trial_type":"image-button-response","trial_index":55,"time_elapsed":391074,"internal_node_id":"0.0-4.0-0.22","subject_id":"608ac7cd42222f63f6fe7e14","study_id":"60edd13110225f80f9f3709b","session_id":"6196c1f58213d6fdff19a0da","condition":"contingent","relevant_dimensions":["antennae","wings"],"bee_group":{"antennae":"A","wings":"1","pattern":"X","legs":"X"},"action":"harvest","summary":"good-harvest","bonus":0},{"rt":927.2999999970198,"stimulus":"\n                    <p><b>Action: <em>harvest</em></b></p>\n                    <p>This is the bee that you just saw.</p>\n                    <img src=\"bees-with-color/bee-B2DM.svg\" width=\"200\">\n                    <p><span class=\"greenText\"><b>Successful harvest!</b></span><br>Your pay has increased by $0.02. Your bonus pay is now $0.60.</p>\n            ","response":0,"trial_type":"html-button-response","trial_index":56,"time_elapsed":392002,"internal_node_id":"0.0-4.0-1.22","subject_id":"608ac7cd42222f63f6fe7e14","study_id":"60edd13110225f80f9f3709b","session_id":"6196c1f58213d6fdff19a0da","condition":"contingent","relevant_dimensions":["antennae","wings"],"bee_group":{"antennae":"A","wings":"1","pattern":"X","legs":"X"},"bonus":0},{"rt":1357.199999988079,"stimulus":"bees-with-color/bee-B1DF.svg","response":0,"trial_type":"image-button-response","trial_index":57,"time_elapsed":393360,"internal_node_id":"0.0-4.0-0.23","subject_id":"608ac7cd42222f63f6fe7e14","study_id":"60edd13110225f80f9f3709b","session_id":"6196c1f58213d6fdff19a0da","condition":"contingent","relevant_dimensions":["antennae","wings"],"bee_group":{"antennae":"A","wings":"1","pattern":"X","legs":"X"},"action":"harvest","summary":"good-harvest","bonus":0},{"rt":737.2000000029802,"stimulus":"\n                    <p><b>Action: <em>harvest</em></b></p>\n                    <p>This is the bee that you just saw.</p>\n                    <img src=\"bees-with-color/bee-B1DF.svg\" width=\"200\">\n                    <p><span class=\"greenText\"><b>Successful harvest!</b></span><br>Your pay has increased by $0.02. Your bonus pay is now $0.62.</p>\n            ","response":0,"trial_type":"html-button-response","trial_index":58,"time_elapsed":394098,"internal_node_id":"0.0-4.0-1.23","subject_id":"608ac7cd42222f63f6fe7e14","study_id":"60edd13110225f80f9f3709b","session_id":"6196c1f58213d6fdff19a0da","condition":"contingent","relevant_dimensions":["antennae","wings"],"bee_group":{"antennae":"A","wings":"1","pattern":"X","legs":"X"},"bonus":0},{"rt":1047.1000000089407,"stimulus":"bees-with-color/bee-A2DM.svg","response":1,"trial_type":"image-button-response","trial_index":59,"time_elapsed":395146,"internal_node_id":"0.0-4.0-0.24","subject_id":"608ac7cd42222f63f6fe7e14","study_id":"60edd13110225f80f9f3709b","session_id":"6196c1f58213d6fdff19a0da","condition":"contingent","relevant_dimensions":["antennae","wings"],"bee_group":{"antennae":"A","wings":"1","pattern":"X","legs":"X"},"action":"avoid","summary":"bad-avoid","bonus":0},{"rt":467.70000000298023,"stimulus":"\n                    <p><b>Action: <em>avoid</em></b></p>\n                    <p>This is the bee that you just saw.</p>\n                    <img src=\"bees-with-color/bee-A2DM.svg\" width=\"200\">\n                    <p><br>Your bonus pay is unchanged, and remains at $0.62.</p>\n            ","response":0,"trial_type":"html-button-response","trial_index":60,"time_elapsed":395615,"internal_node_id":"0.0-4.0-1.24","subject_id":"608ac7cd42222f63f6fe7e14","study_id":"60edd13110225f80f9f3709b","session_id":"6196c1f58213d6fdff19a0da","condition":"contingent","relevant_dimensions":["antennae","wings"],"bee_group":{"antennae":"A","wings":"1","pattern":"X","legs":"X"},"bonus":0},{"rt":1364.9000000059605,"stimulus":"bees-with-color/bee-A1SF.svg","response":1,"trial_type":"image-button-response","trial_index":61,"time_elapsed":396981,"internal_node_id":"0.0-4.0-0.25","subject_id":"608ac7cd42222f63f6fe7e14","study_id":"60edd13110225f80f9f3709b","session_id":"6196c1f58213d6fdff19a0da","condition":"contingent","relevant_dimensions":["antennae","wings"],"bee_group":{"antennae":"A","wings":"1","pattern":"X","legs":"X"},"action":"avoid","summary":"good-avoid","bonus":0},{"rt":430.90000000596046,"stimulus":"\n                    <p><b>Action: <em>avoid</em></b></p>\n                    <p>This is the bee that you just saw.</p>\n                    <img src=\"bees-with-color/bee-A1SF.svg\" width=\"200\">\n                    <p><br>Your bonus pay is unchanged, and remains at $0.62.</p>\n            ","response":0,"trial_type":"html-button-response","trial_index":62,"time_elapsed":397413,"internal_node_id":"0.0-4.0-1.25","subject_id":"608ac7cd42222f63f6fe7e14","study_id":"60edd13110225f80f9f3709b","session_id":"6196c1f58213d6fdff19a0da","condition":"contingent","relevant_dimensions":["antennae","wings"],"bee_group":{"antennae":"A","wings":"1","pattern":"X","legs":"X"},"bonus":0},{"rt":719.5,"stimulus":"bees-with-color/bee-A1DF.svg","response":0,"trial_type":"image-button-response","trial_index":63,"time_elapsed":398133,"internal_node_id":"0.0-4.0-0.26","subject_id":"608ac7cd42222f63f6fe7e14","study_id":"60edd13110225f80f9f3709b","session_id":"6196c1f58213d6fdff19a0da","condition":"contingent","relevant_dimensions":["antennae","wings"],"bee_group":{"antennae":"A","wings":"1","pattern":"X","legs":"X"},"action":"harvest","summary":"bad-harvest","bonus":0},{"rt":1624.1000000089407,"stimulus":"\n                    <p><b>Action: <em>harvest</em></b></p>\n                    <p>This is the bee that you just saw.</p>\n                    <img src=\"bees-with-color/bee-A1DF.svg\" width=\"200\">\n                    <p><span class=\"redText\">Bad choice, the bee was angry.</span><br><b>You have been stung!</b><br>Your pay has been decreased by $0.10. Your bonus pay is now $0.52.</p>\n            ","response":0,"trial_type":"html-button-response","trial_index":64,"time_elapsed":399758,"internal_node_id":"0.0-4.0-1.26","subject_id":"608ac7cd42222f63f6fe7e14","study_id":"60edd13110225f80f9f3709b","session_id":"6196c1f58213d6fdff19a0da","condition":"contingent","relevant_dimensions":["antennae","wings"],"bee_group":{"antennae":"A","wings":"1","pattern":"X","legs":"X"},"bonus":0},{"rt":942,"stimulus":"bees-with-color/bee-A2SM.svg","response":0,"trial_type":"image-button-response","trial_index":65,"time_elapsed":400701,"internal_node_id":"0.0-4.0-0.27","subject_id":"608ac7cd42222f63f6fe7e14","study_id":"60edd13110225f80f9f3709b","session_id":"6196c1f58213d6fdff19a0da","condition":"contingent","relevant_dimensions":["antennae","wings"],"bee_group":{"antennae":"A","wings":"1","pattern":"X","legs":"X"},"action":"harvest","summary":"good-harvest","bonus":0},{"rt":604.5,"stimulus":"\n                    <p><b>Action: <em>harvest</em></b></p>\n                    <p>This is the bee that you just saw.</p>\n                    <img src=\"bees-with-color/bee-A2SM.svg\" width=\"200\">\n                    <p><span class=\"greenText\"><b>Successful harvest!</b></span><br>Your pay has increased by $0.02. Your bonus pay is now $0.54.</p>\n            ","response":0,"trial_type":"html-button-response","trial_index":66,"time_elapsed":401306,"internal_node_id":"0.0-4.0-1.27","subject_id":"608ac7cd42222f63f6fe7e14","study_id":"60edd13110225f80f9f3709b","session_id":"6196c1f58213d6fdff19a0da","condition":"contingent","relevant_dimensions":["antennae","wings"],"bee_group":{"antennae":"A","wings":"1","pattern":"X","legs":"X"},"bonus":0},{"rt":972.7000000029802,"stimulus":"bees-with-color/bee-B1DM.svg","response":0,"trial_type":"image-button-response","trial_index":67,"time_elapsed":402280,"internal_node_id":"0.0-4.0-0.28","subject_id":"608ac7cd42222f63f6fe7e14","study_id":"60edd13110225f80f9f3709b","session_id":"6196c1f58213d6fdff19a0da","condition":"contingent","relevant_dimensions":["antennae","wings"],"bee_group":{"antennae":"A","wings":"1","pattern":"X","legs":"X"},"action":"harvest","summary":"good-harvest","bonus":0},{"rt":779,"stimulus":"\n                    <p><b>Action: <em>harvest</em></b></p>\n                    <p>This is the bee that you just saw.</p>\n                    <img src=\"bees-with-color/bee-B1DM.svg\" width=\"200\">\n                    <p><span class=\"greenText\"><b>Successful harvest!</b></span><br>Your pay has increased by $0.02. Your bonus pay is now $0.56.</p>\n            ","response":0,"trial_type":"html-button-response","trial_index":68,"time_elapsed":403060,"internal_node_id":"0.0-4.0-1.28","subject_id":"608ac7cd42222f63f6fe7e14","study_id":"60edd13110225f80f9f3709b","session_id":"6196c1f58213d6fdff19a0da","condition":"contingent","relevant_dimensions":["antennae","wings"],"bee_group":{"antennae":"A","wings":"1","pattern":"X","legs":"X"},"bonus":0},{"rt":916.2000000029802,"stimulus":"bees-with-color/bee-B2SF.svg","response":0,"trial_type":"image-button-response","trial_index":69,"time_elapsed":403977,"internal_node_id":"0.0-4.0-0.29","subject_id":"608ac7cd42222f63f6fe7e14","study_id":"60edd13110225f80f9f3709b","session_id":"6196c1f58213d6fdff19a0da","condition":"contingent","relevant_dimensions":["antennae","wings"],"bee_group":{"antennae":"A","wings":"1","pattern":"X","legs":"X"},"action":"harvest","summary":"good-harvest","bonus":0},{"rt":879.1999999880791,"stimulus":"\n                    <p><b>Action: <em>harvest</em></b></p>\n                    <p>This is the bee that you just saw.</p>\n                    <img src=\"bees-with-color/bee-B2SF.svg\" width=\"200\">\n                    <p><span class=\"greenText\"><b>Successful harvest!</b></span><br>Your pay has increased by $0.02. Your bonus pay is now $0.58.</p>\n            ","response":0,"trial_type":"html-button-response","trial_index":70,"time_elapsed":404857,"internal_node_id":"0.0-4.0-1.29","subject_id":"608ac7cd42222f63f6fe7e14","study_id":"60edd13110225f80f9f3709b","session_id":"6196c1f58213d6fdff19a0da","condition":"contingent","relevant_dimensions":["antennae","wings"],"bee_group":{"antennae":"A","wings":"1","pattern":"X","legs":"X"},"bonus":0},{"rt":907.4000000059605,"stimulus":"bees-with-color/bee-B2DF.svg","response":0,"trial_type":"image-button-response","trial_index":71,"time_elapsed":405765,"internal_node_id":"0.0-4.0-0.30","subject_id":"608ac7cd42222f63f6fe7e14","study_id":"60edd13110225f80f9f3709b","session_id":"6196c1f58213d6fdff19a0da","condition":"contingent","relevant_dimensions":["antennae","wings"],"bee_group":{"antennae":"A","wings":"1","pattern":"X","legs":"X"},"action":"harvest","summary":"good-harvest","bonus":0},{"rt":463.90000000596046,"stimulus":"\n                    <p><b>Action: <em>harvest</em></b></p>\n                    <p>This is the bee that you just saw.</p>\n                    <img src=\"bees-with-color/bee-B2DF.svg\" width=\"200\">\n                    <p><span class=\"greenText\"><b>Successful harvest!</b></span><br>Your pay has increased by $0.02. Your bonus pay is now $0.60.</p>\n            ","response":0,"trial_type":"html-button-response","trial_index":72,"time_elapsed":406230,"internal_node_id":"0.0-4.0-1.30","subject_id":"608ac7cd42222f63f6fe7e14","study_id":"60edd13110225f80f9f3709b","session_id":"6196c1f58213d6fdff19a0da","condition":"contingent","relevant_dimensions":["antennae","wings"],"bee_group":{"antennae":"A","wings":"1","pattern":"X","legs":"X"},"bonus":0},{"rt":859.2999999970198,"stimulus":"bees-with-color/bee-A2SF.svg","response":1,"trial_type":"image-button-response","trial_index":73,"time_elapsed":407090,"internal_node_id":"0.0-4.0-0.31","subject_id":"608ac7cd42222f63f6fe7e14","study_id":"60edd13110225f80f9f3709b","session_id":"6196c1f58213d6fdff19a0da","condition":"contingent","relevant_dimensions":["antennae","wings"],"bee_group":{"antennae":"A","wings":"1","pattern":"X","legs":"X"},"action":"avoid","summary":"bad-avoid","bonus":0},{"rt":695.2000000029802,"stimulus":"\n                    <p><b>Action: <em>avoid</em></b></p>\n                    <p>This is the bee that you just saw.</p>\n                    <img src=\"bees-with-color/bee-A2SF.svg\" width=\"200\">\n                    <p><br>Your bonus pay is unchanged, and remains at $0.60.</p>\n            ","response":0,"trial_type":"html-button-response","trial_index":74,"time_elapsed":407786,"internal_node_id":"0.0-4.0-1.31","subject_id":"608ac7cd42222f63f6fe7e14","study_id":"60edd13110225f80f9f3709b","session_id":"6196c1f58213d6fdff19a0da","condition":"contingent","relevant_dimensions":["antennae","wings"],"bee_group":{"antennae":"A","wings":"1","pattern":"X","legs":"X"},"bonus":0},{"rt":1856.0999999940395,"stimulus":"bees-with-color/bee-A2SF.svg","response":0,"trial_type":"image-button-response","trial_index":75,"time_elapsed":409643,"internal_node_id":"0.0-4.0-0.32","subject_id":"608ac7cd42222f63f6fe7e14","study_id":"60edd13110225f80f9f3709b","session_id":"6196c1f58213d6fdff19a0da","condition":"contingent","relevant_dimensions":["antennae","wings"],"bee_group":{"antennae":"A","wings":"1","pattern":"X","legs":"X"},"action":"harvest","summary":"good-harvest","bonus":0},{"rt":575.2999999970198,"stimulus":"\n                    <p><b>Action: <em>harvest</em></b></p>\n                    <p>This is the bee that you just saw.</p>\n                    <img src=\"bees-with-color/bee-A2SF.svg\" width=\"200\">\n                    <p><span class=\"greenText\"><b>Successful harvest!</b></span><br>Your pay has increased by $0.02. Your bonus pay is now $0.62.</p>\n            ","response":0,"trial_type":"html-button-response","trial_index":76,"time_elapsed":410219,"internal_node_id":"0.0-4.0-1.32","subject_id":"608ac7cd42222f63f6fe7e14","study_id":"60edd13110225f80f9f3709b","session_id":"6196c1f58213d6fdff19a0da","condition":"contingent","relevant_dimensions":["antennae","wings"],"bee_group":{"antennae":"A","wings":"1","pattern":"X","legs":"X"},"bonus":0},{"rt":871.1999999880791,"stimulus":"bees-with-color/bee-B1DM.svg","response":1,"trial_type":"image-button-response","trial_index":77,"time_elapsed":411091,"internal_node_id":"0.0-4.0-0.33","subject_id":"608ac7cd42222f63f6fe7e14","study_id":"60edd13110225f80f9f3709b","session_id":"6196c1f58213d6fdff19a0da","condition":"contingent","relevant_dimensions":["antennae","wings"],"bee_group":{"antennae":"A","wings":"1","pattern":"X","legs":"X"},"action":"avoid","summary":"bad-avoid","bonus":0},{"rt":1064,"stimulus":"\n                    <p><b>Action: <em>avoid</em></b></p>\n                    <p>This is the bee that you just saw.</p>\n                    <img src=\"bees-with-color/bee-B1DM.svg\" width=\"200\">\n                    <p><br>Your bonus pay is unchanged, and remains at $0.62.</p>\n            ","response":0,"trial_type":"html-button-response","trial_index":78,"time_elapsed":412156,"internal_node_id":"0.0-4.0-1.33","subject_id":"608ac7cd42222f63f6fe7e14","study_id":"60edd13110225f80f9f3709b","session_id":"6196c1f58213d6fdff19a0da","condition":"contingent","relevant_dimensions":["antennae","wings"],"bee_group":{"antennae":"A","wings":"1","pattern":"X","legs":"X"},"bonus":0},{"rt":790.1000000089407,"stimulus":"bees-with-color/bee-A2DF.svg","response":0,"trial_type":"image-button-response","trial_index":79,"time_elapsed":412947,"internal_node_id":"0.0-4.0-0.34","subject_id":"608ac7cd42222f63f6fe7e14","study_id":"60edd13110225f80f9f3709b","session_id":"6196c1f58213d6fdff19a0da","condition":"contingent","relevant_dimensions":["antennae","wings"],"bee_group":{"antennae":"A","wings":"1","pattern":"X","legs":"X"},"action":"harvest","summary":"good-harvest","bonus":0},{"rt":668.2000000029802,"stimulus":"\n                    <p><b>Action: <em>harvest</em></b></p>\n                    <p>This is the bee that you just saw.</p>\n                    <img src=\"bees-with-color/bee-A2DF.svg\" width=\"200\">\n                    <p><span class=\"greenText\"><b>Successful harvest!</b></span><br>Your pay has increased by $0.02. Your bonus pay is now $0.64.</p>\n            ","response":0,"trial_type":"html-button-response","trial_index":80,"time_elapsed":413616,"internal_node_id":"0.0-4.0-1.34","subject_id":"608ac7cd42222f63f6fe7e14","study_id":"60edd13110225f80f9f3709b","session_id":"6196c1f58213d6fdff19a0da","condition":"contingent","relevant_dimensions":["antennae","wings"],"bee_group":{"antennae":"A","wings":"1","pattern":"X","legs":"X"},"bonus":0},{"rt":1032.199999988079,"stimulus":"bees-with-color/bee-A1DF.svg","response":0,"trial_type":"image-button-response","trial_index":81,"time_elapsed":414649,"internal_node_id":"0.0-4.0-0.35","subject_id":"608ac7cd42222f63f6fe7e14","study_id":"60edd13110225f80f9f3709b","session_id":"6196c1f58213d6fdff19a0da","condition":"contingent","relevant_dimensions":["antennae","wings"],"bee_group":{"antennae":"A","wings":"1","pattern":"X","legs":"X"},"action":"harvest","summary":"bad-harvest","bonus":0},{"rt":678,"stimulus":"\n                    <p><b>Action: <em>harvest</em></b></p>\n                    <p>This is the bee that you just saw.</p>\n                    <img src=\"bees-with-color/bee-A1DF.svg\" width=\"200\">\n                    <p><span class=\"redText\">Bad choice, the bee was angry.</span><br><b>You have been stung!</b><br>Your pay has been decreased by $0.10. Your bonus pay is now $0.54.</p>\n            ","response":0,"trial_type":"html-button-response","trial_index":82,"time_elapsed":415328,"internal_node_id":"0.0-4.0-1.35","subject_id":"608ac7cd42222f63f6fe7e14","study_id":"60edd13110225f80f9f3709b","session_id":"6196c1f58213d6fdff19a0da","condition":"contingent","relevant_dimensions":["antennae","wings"],"bee_group":{"antennae":"A","wings":"1","pattern":"X","legs":"X"},"bonus":0},{"rt":661.7999999970198,"stimulus":"bees-with-color/bee-B2SF.svg","response":0,"trial_type":"image-button-response","trial_index":83,"time_elapsed":415991,"internal_node_id":"0.0-4.0-0.36","subject_id":"608ac7cd42222f63f6fe7e14","study_id":"60edd13110225f80f9f3709b","session_id":"6196c1f58213d6fdff19a0da","condition":"contingent","relevant_dimensions":["antennae","wings"],"bee_group":{"antennae":"A","wings":"1","pattern":"X","legs":"X"},"action":"harvest","summary":"good-harvest","bonus":0},{"rt":443,"stimulus":"\n                    <p><b>Action: <em>harvest</em></b></p>\n                    <p>This is the bee that you just saw.</p>\n                    <img src=\"bees-with-color/bee-B2SF.svg\" width=\"200\">\n                    <p><span class=\"greenText\"><b>Successful harvest!</b></span><br>Your pay has increased by $0.02. Your bonus pay is now $0.56.</p>\n            ","response":0,"trial_type":"html-button-response","trial_index":84,"time_elapsed":416435,"internal_node_id":"0.0-4.0-1.36","subject_id":"608ac7cd42222f63f6fe7e14","study_id":"60edd13110225f80f9f3709b","session_id":"6196c1f58213d6fdff19a0da","condition":"contingent","relevant_dimensions":["antennae","wings"],"bee_group":{"antennae":"A","wings":"1","pattern":"X","legs":"X"},"bonus":0},{"rt":575.5999999940395,"stimulus":"bees-with-color/bee-B1DF.svg","response":0,"trial_type":"image-button-response","trial_index":85,"time_elapsed":417011,"internal_node_id":"0.0-4.0-0.37","subject_id":"608ac7cd42222f63f6fe7e14","study_id":"60edd13110225f80f9f3709b","session_id":"6196c1f58213d6fdff19a0da","condition":"contingent","relevant_dimensions":["antennae","wings"],"bee_group":{"antennae":"A","wings":"1","pattern":"X","legs":"X"},"action":"harvest","summary":"good-harvest","bonus":0},{"rt":517.2999999970198,"stimulus":"\n                    <p><b>Action: <em>harvest</em></b></p>\n                    <p>This is the bee that you just saw.</p>\n                    <img src=\"bees-with-color/bee-B1DF.svg\" width=\"200\">\n                    <p><span class=\"greenText\"><b>Successful harvest!</b></span><br>Your pay has increased by $0.02. Your bonus pay is now $0.58.</p>\n            ","response":0,"trial_type":"html-button-response","trial_index":86,"time_elapsed":417530,"internal_node_id":"0.0-4.0-1.37","subject_id":"608ac7cd42222f63f6fe7e14","study_id":"60edd13110225f80f9f3709b","session_id":"6196c1f58213d6fdff19a0da","condition":"contingent","relevant_dimensions":["antennae","wings"],"bee_group":{"antennae":"A","wings":"1","pattern":"X","legs":"X"},"bonus":0},{"rt":532,"stimulus":"bees-with-color/bee-B2DM.svg","response":0,"trial_type":"image-button-response","trial_index":87,"time_elapsed":418063,"internal_node_id":"0.0-4.0-0.38","subject_id":"608ac7cd42222f63f6fe7e14","study_id":"60edd13110225f80f9f3709b","session_id":"6196c1f58213d6fdff19a0da","condition":"contingent","relevant_dimensions":["antennae","wings"],"bee_group":{"antennae":"A","wings":"1","pattern":"X","legs":"X"},"action":"harvest","summary":"good-harvest","bonus":0},{"rt":468.90000000596046,"stimulus":"\n                    <p><b>Action: <em>harvest</em></b></p>\n                    <p>This is the bee that you just saw.</p>\n                    <img src=\"bees-with-color/bee-B2DM.svg\" width=\"200\">\n                    <p><span class=\"greenText\"><b>Successful harvest!</b></span><br>Your pay has increased by $0.02. Your bonus pay is now $0.60.</p>\n            ","response":0,"trial_type":"html-button-response","trial_index":88,"time_elapsed":418532,"internal_node_id":"0.0-4.0-1.38","subject_id":"608ac7cd42222f63f6fe7e14","study_id":"60edd13110225f80f9f3709b","session_id":"6196c1f58213d6fdff19a0da","condition":"contingent","relevant_dimensions":["antennae","wings"],"bee_group":{"antennae":"A","wings":"1","pattern":"X","legs":"X"},"bonus":0},{"rt":790.3999999910593,"stimulus":"bees-with-color/bee-A1SF.svg","response":0,"trial_type":"image-button-response","trial_index":89,"time_elapsed":419324,"internal_node_id":"0.0-4.0-0.39","subject_id":"608ac7cd42222f63f6fe7e14","study_id":"60edd13110225f80f9f3709b","session_id":"6196c1f58213d6fdff19a0da","condition":"contingent","relevant_dimensions":["antennae","wings"],"bee_group":{"antennae":"A","wings":"1","pattern":"X","legs":"X"},"action":"harvest","summary":"bad-harvest","bonus":0},{"rt":570.7999999970198,"stimulus":"\n                    <p><b>Action: <em>harvest</em></b></p>\n                    <p>This is the bee that you just saw.</p>\n                    <img src=\"bees-with-color/bee-A1SF.svg\" width=\"200\">\n                    <p><span class=\"redText\">Bad choice, the bee was angry.</span><br><b>You have been stung!</b><br>Your pay has been decreased by $0.10. Your bonus pay is now $0.50.</p>\n            ","response":0,"trial_type":"html-button-response","trial_index":90,"time_elapsed":419896,"internal_node_id":"0.0-4.0-1.39","subject_id":"608ac7cd42222f63f6fe7e14","study_id":"60edd13110225f80f9f3709b","session_id":"6196c1f58213d6fdff19a0da","condition":"contingent","relevant_dimensions":["antennae","wings"],"bee_group":{"antennae":"A","wings":"1","pattern":"X","legs":"X"},"bonus":0},{"rt":471.29999999701977,"stimulus":"bees-with-color/bee-B1SF.svg","response":0,"trial_type":"image-button-response","trial_index":91,"time_elapsed":420368,"internal_node_id":"0.0-4.0-0.40","subject_id":"608ac7cd42222f63f6fe7e14","study_id":"60edd13110225f80f9f3709b","session_id":"6196c1f58213d6fdff19a0da","condition":"contingent","relevant_dimensions":["antennae","wings"],"bee_group":{"antennae":"A","wings":"1","pattern":"X","legs":"X"},"action":"harvest","summary":"good-harvest","bonus":0},{"rt":682.8999999910593,"stimulus":"\n                    <p><b>Action: <em>harvest</em></b></p>\n                    <p>This is the bee that you just saw.</p>\n                    <img src=\"bees-with-color/bee-B1SF.svg\" width=\"200\">\n                    <p><span class=\"greenText\"><b>Successful harvest!</b></span><br>Your pay has increased by $0.02. Your bonus pay is now $0.52.</p>\n            ","response":0,"trial_type":"html-button-response","trial_index":92,"time_elapsed":421052,"internal_node_id":"0.0-4.0-1.40","subject_id":"608ac7cd42222f63f6fe7e14","study_id":"60edd13110225f80f9f3709b","session_id":"6196c1f58213d6fdff19a0da","condition":"contingent","relevant_dimensions":["antennae","wings"],"bee_group":{"antennae":"A","wings":"1","pattern":"X","legs":"X"},"bonus":0},{"rt":483.29999999701977,"stimulus":"bees-with-color/bee-B2SM.svg","response":0,"trial_type":"image-button-response","trial_index":93,"time_elapsed":421536,"internal_node_id":"0.0-4.0-0.41","subject_id":"608ac7cd42222f63f6fe7e14","study_id":"60edd13110225f80f9f3709b","session_id":"6196c1f58213d6fdff19a0da","condition":"contingent","relevant_dimensions":["antennae","wings"],"bee_group":{"antennae":"A","wings":"1","pattern":"X","legs":"X"},"action":"harvest","summary":"good-harvest","bonus":0},{"rt":522.2000000029802,"stimulus":"\n                    <p><b>Action: <em>harvest</em></b></p>\n                    <p>This is the bee that you just saw.</p>\n                    <img src=\"bees-with-color/bee-B2SM.svg\" width=\"200\">\n                    <p><span class=\"greenText\"><b>Successful harvest!</b></span><br>Your pay has increased by $0.02. Your bonus pay is now $0.54.</p>\n            ","response":0,"trial_type":"html-button-response","trial_index":94,"time_elapsed":422059,"internal_node_id":"0.0-4.0-1.41","subject_id":"608ac7cd42222f63f6fe7e14","study_id":"60edd13110225f80f9f3709b","session_id":"6196c1f58213d6fdff19a0da","condition":"contingent","relevant_dimensions":["antennae","wings"],"bee_group":{"antennae":"A","wings":"1","pattern":"X","legs":"X"},"bonus":0},{"rt":804.2000000029802,"stimulus":"bees-with-color/bee-A2SM.svg","response":0,"trial_type":"image-button-response","trial_index":95,"time_elapsed":422864,"internal_node_id":"0.0-4.0-0.42","subject_id":"608ac7cd42222f63f6fe7e14","study_id":"60edd13110225f80f9f3709b","session_id":"6196c1f58213d6fdff19a0da","condition":"contingent","relevant_dimensions":["antennae","wings"],"bee_group":{"antennae":"A","wings":"1","pattern":"X","legs":"X"},"action":"harvest","summary":"good-harvest","bonus":0},{"rt":509.29999999701977,"stimulus":"\n                    <p><b>Action: <em>harvest</em></b></p>\n                    <p>This is the bee that you just saw.</p>\n                    <img src=\"bees-with-color/bee-A2SM.svg\" width=\"200\">\n                    <p><span class=\"greenText\"><b>Successful harvest!</b></span><br>Your pay has increased by $0.02. Your bonus pay is now $0.56.</p>\n            ","response":0,"trial_type":"html-button-response","trial_index":96,"time_elapsed":423374,"internal_node_id":"0.0-4.0-1.42","subject_id":"608ac7cd42222f63f6fe7e14","study_id":"60edd13110225f80f9f3709b","session_id":"6196c1f58213d6fdff19a0da","condition":"contingent","relevant_dimensions":["antennae","wings"],"bee_group":{"antennae":"A","wings":"1","pattern":"X","legs":"X"},"bonus":0},{"rt":656.2999999970198,"stimulus":"bees-with-color/bee-A2DM.svg","response":0,"trial_type":"image-button-response","trial_index":97,"time_elapsed":424031,"internal_node_id":"0.0-4.0-0.43","subject_id":"608ac7cd42222f63f6fe7e14","study_id":"60edd13110225f80f9f3709b","session_id":"6196c1f58213d6fdff19a0da","condition":"contingent","relevant_dimensions":["antennae","wings"],"bee_group":{"antennae":"A","wings":"1","pattern":"X","legs":"X"},"action":"harvest","summary":"good-harvest","bonus":0},{"rt":588.0999999940395,"stimulus":"\n                    <p><b>Action: <em>harvest</em></b></p>\n                    <p>This is the bee that you just saw.</p>\n                    <img src=\"bees-with-color/bee-A2DM.svg\" width=\"200\">\n                    <p><span class=\"greenText\"><b>Successful harvest!</b></span><br>Your pay has increased by $0.02. Your bonus pay is now $0.58.</p>\n            ","response":0,"trial_type":"html-button-response","trial_index":98,"time_elapsed":424620,"internal_node_id":"0.0-4.0-1.43","subject_id":"608ac7cd42222f63f6fe7e14","study_id":"60edd13110225f80f9f3709b","session_id":"6196c1f58213d6fdff19a0da","condition":"contingent","relevant_dimensions":["antennae","wings"],"bee_group":{"antennae":"A","wings":"1","pattern":"X","legs":"X"},"bonus":0},{"rt":573.1999999880791,"stimulus":"bees-with-color/bee-B2DF.svg","response":1,"trial_type":"image-button-response","trial_index":99,"time_elapsed":425194,"internal_node_id":"0.0-4.0-0.44","subject_id":"608ac7cd42222f63f6fe7e14","study_id":"60edd13110225f80f9f3709b","session_id":"6196c1f58213d6fdff19a0da","condition":"contingent","relevant_dimensions":["antennae","wings"],"bee_group":{"antennae":"A","wings":"1","pattern":"X","legs":"X"},"action":"avoid","summary":"bad-avoid","bonus":0},{"rt":698.2000000029802,"stimulus":"\n                    <p><b>Action: <em>avoid</em></b></p>\n                    <p>This is the bee that you just saw.</p>\n                    <img src=\"bees-with-color/bee-B2DF.svg\" width=\"200\">\n                    <p><br>Your bonus pay is unchanged, and remains at $0.58.</p>\n            ","response":0,"trial_type":"html-button-response","trial_index":100,"time_elapsed":425893,"internal_node_id":"0.0-4.0-1.44","subject_id":"608ac7cd42222f63f6fe7e14","study_id":"60edd13110225f80f9f3709b","session_id":"6196c1f58213d6fdff19a0da","condition":"contingent","relevant_dimensions":["antennae","wings"],"bee_group":{"antennae":"A","wings":"1","pattern":"X","legs":"X"},"bonus":0},{"rt":1186.199999988079,"stimulus":"bees-with-color/bee-B1SM.svg","response":1,"trial_type":"image-button-response","trial_index":101,"time_elapsed":427080,"internal_node_id":"0.0-4.0-0.45","subject_id":"608ac7cd42222f63f6fe7e14","study_id":"60edd13110225f80f9f3709b","session_id":"6196c1f58213d6fdff19a0da","condition":"contingent","relevant_dimensions":["antennae","wings"],"bee_group":{"antennae":"A","wings":"1","pattern":"X","legs":"X"},"action":"avoid","summary":"bad-avoid","bonus":0},{"rt":354.80000001192093,"stimulus":"\n                    <p><b>Action: <em>avoid</em></b></p>\n                    <p>This is the bee that you just saw.</p>\n                    <img src=\"bees-with-color/bee-B1SM.svg\" width=\"200\">\n                    <p><br>Your bonus pay is unchanged, and remains at $0.58.</p>\n            ","response":0,"trial_type":"html-button-response","trial_index":102,"time_elapsed":427436,"internal_node_id":"0.0-4.0-1.45","subject_id":"608ac7cd42222f63f6fe7e14","study_id":"60edd13110225f80f9f3709b","session_id":"6196c1f58213d6fdff19a0da","condition":"contingent","relevant_dimensions":["antennae","wings"],"bee_group":{"antennae":"A","wings":"1","pattern":"X","legs":"X"},"bonus":0},{"rt":471.1000000089407,"stimulus":"bees-with-color/bee-A1SM.svg","response":0,"trial_type":"image-button-response","trial_index":103,"time_elapsed":427907,"internal_node_id":"0.0-4.0-0.46","subject_id":"608ac7cd42222f63f6fe7e14","study_id":"60edd13110225f80f9f3709b","session_id":"6196c1f58213d6fdff19a0da","condition":"contingent","relevant_dimensions":["antennae","wings"],"bee_group":{"antennae":"A","wings":"1","pattern":"X","legs":"X"},"action":"harvest","summary":"bad-harvest","bonus":0},{"rt":605.5,"stimulus":"\n                    <p><b>Action: <em>harvest</em></b></p>\n                    <p>This is the bee that you just saw.</p>\n                    <img src=\"bees-with-color/bee-A1SM.svg\" width=\"200\">\n                    <p><span class=\"redText\">Bad choice, the bee was angry.</span><br><b>You have been stung!</b><br>Your pay has been decreased by $0.10. Your bonus pay is now $0.48.</p>\n            ","response":0,"trial_type":"html-button-response","trial_index":104,"time_elapsed":428514,"internal_node_id":"0.0-4.0-1.46","subject_id":"608ac7cd42222f63f6fe7e14","study_id":"60edd13110225f80f9f3709b","session_id":"6196c1f58213d6fdff19a0da","condition":"contingent","relevant_dimensions":["antennae","wings"],"bee_group":{"antennae":"A","wings":"1","pattern":"X","legs":"X"},"bonus":0},{"rt":770.4000000059605,"stimulus":"bees-with-color/bee-A1DM.svg","response":0,"trial_type":"image-button-response","trial_index":105,"time_elapsed":429285,"internal_node_id":"0.0-4.0-0.47","subject_id":"608ac7cd42222f63f6fe7e14","study_id":"60edd13110225f80f9f3709b","session_id":"6196c1f58213d6fdff19a0da","condition":"contingent","relevant_dimensions":["antennae","wings"],"bee_group":{"antennae":"A","wings":"1","pattern":"X","legs":"X"},"action":"harvest","summary":"bad-harvest","bonus":0},{"rt":527.6999999880791,"stimulus":"\n                    <p><b>Action: <em>harvest</em></b></p>\n                    <p>This is the bee that you just saw.</p>\n                    <img src=\"bees-with-color/bee-A1DM.svg\" width=\"200\">\n                    <p><span class=\"redText\">Bad choice, the bee was angry.</span><br><b>You have been stung!</b><br>Your pay has been decreased by $0.10. Your bonus pay is now $0.38.</p>\n            ","response":0,"trial_type":"html-button-response","trial_index":106,"time_elapsed":429814,"internal_node_id":"0.0-4.0-1.47","subject_id":"608ac7cd42222f63f6fe7e14","study_id":"60edd13110225f80f9f3709b","session_id":"6196c1f58213d6fdff19a0da","condition":"contingent","relevant_dimensions":["antennae","wings"],"bee_group":{"antennae":"A","wings":"1","pattern":"X","legs":"X"},"bonus":0},{"rt":382.20000000298023,"stimulus":"bees-with-color/bee-B2DM.svg","response":1,"trial_type":"image-button-response","trial_index":107,"time_elapsed":430197,"internal_node_id":"0.0-4.0-0.48","subject_id":"608ac7cd42222f63f6fe7e14","study_id":"60edd13110225f80f9f3709b","session_id":"6196c1f58213d6fdff19a0da","condition":"contingent","relevant_dimensions":["antennae","wings"],"bee_group":{"antennae":"A","wings":"1","pattern":"X","legs":"X"},"action":"avoid","summary":"bad-avoid","bonus":0},{"rt":568,"stimulus":"\n                    <p><b>Action: <em>avoid</em></b></p>\n                    <p>This is the bee that you just saw.</p>\n                    <img src=\"bees-with-color/bee-B2DM.svg\" width=\"200\">\n                    <p><br>Your bonus pay is unchanged, and remains at $0.38.</p>\n            ","response":0,"trial_type":"html-button-response","trial_index":108,"time_elapsed":430766,"internal_node_id":"0.0-4.0-1.48","subject_id":"608ac7cd42222f63f6fe7e14","study_id":"60edd13110225f80f9f3709b","session_id":"6196c1f58213d6fdff19a0da","condition":"contingent","relevant_dimensions":["antennae","wings"],"bee_group":{"antennae":"A","wings":"1","pattern":"X","legs":"X"},"bonus":0},{"rt":627.1999999880791,"stimulus":"bees-with-color/bee-B1SM.svg","response":0,"trial_type":"image-button-response","trial_index":109,"time_elapsed":431394,"internal_node_id":"0.0-4.0-0.49","subject_id":"608ac7cd42222f63f6fe7e14","study_id":"60edd13110225f80f9f3709b","session_id":"6196c1f58213d6fdff19a0da","condition":"contingent","relevant_dimensions":["antennae","wings"],"bee_group":{"antennae":"A","wings":"1","pattern":"X","legs":"X"},"action":"harvest","summary":"good-harvest","bonus":0},{"rt":463.90000000596046,"stimulus":"\n                    <p><b>Action: <em>harvest</em></b></p>\n                    <p>This is the bee that you just saw.</p>\n                    <img src=\"bees-with-color/bee-B1SM.svg\" width=\"200\">\n                    <p><span class=\"greenText\"><b>Successful harvest!</b></span><br>Your pay has increased by $0.02. Your bonus pay is now $0.40.</p>\n            ","response":0,"trial_type":"html-button-response","trial_index":110,"time_elapsed":431859,"internal_node_id":"0.0-4.0-1.49","subject_id":"608ac7cd42222f63f6fe7e14","study_id":"60edd13110225f80f9f3709b","session_id":"6196c1f58213d6fdff19a0da","condition":"contingent","relevant_dimensions":["antennae","wings"],"bee_group":{"antennae":"A","wings":"1","pattern":"X","legs":"X"},"bonus":0},{"rt":419.70000000298023,"stimulus":"bees-with-color/bee-A2SF.svg","response":0,"trial_type":"image-button-response","trial_index":111,"time_elapsed":432279,"internal_node_id":"0.0-4.0-0.50","subject_id":"608ac7cd42222f63f6fe7e14","study_id":"60edd13110225f80f9f3709b","session_id":"6196c1f58213d6fdff19a0da","condition":"contingent","relevant_dimensions":["antennae","wings"],"bee_group":{"antennae":"A","wings":"1","pattern":"X","legs":"X"},"action":"harvest","summary":"good-harvest","bonus":0},{"rt":402.79999999701977,"stimulus":"\n                    <p><b>Action: <em>harvest</em></b></p>\n                    <p>This is the bee that you just saw.</p>\n                    <img src=\"bees-with-color/bee-A2SF.svg\" width=\"200\">\n                    <p><span class=\"greenText\"><b>Successful harvest!</b></span><br>Your pay has increased by $0.02. Your bonus pay is now $0.42.</p>\n            ","response":0,"trial_type":"html-button-response","trial_index":112,"time_elapsed":432683,"internal_node_id":"0.0-4.0-1.50","subject_id":"608ac7cd42222f63f6fe7e14","study_id":"60edd13110225f80f9f3709b","session_id":"6196c1f58213d6fdff19a0da","condition":"contingent","relevant_dimensions":["antennae","wings"],"bee_group":{"antennae":"A","wings":"1","pattern":"X","legs":"X"},"bonus":0},{"rt":922.9000000059605,"stimulus":"bees-with-color/bee-A1DM.svg","response":0,"trial_type":"image-button-response","trial_index":113,"time_elapsed":433607,"internal_node_id":"0.0-4.0-0.51","subject_id":"608ac7cd42222f63f6fe7e14","study_id":"60edd13110225f80f9f3709b","session_id":"6196c1f58213d6fdff19a0da","condition":"contingent","relevant_dimensions":["antennae","wings"],"bee_group":{"antennae":"A","wings":"1","pattern":"X","legs":"X"},"action":"harvest","summary":"bad-harvest","bonus":0},{"rt":560.1000000089407,"stimulus":"\n                    <p><b>Action: <em>harvest</em></b></p>\n                    <p>This is the bee that you just saw.</p>\n                    <img src=\"bees-with-color/bee-A1DM.svg\" width=\"200\">\n                    <p><span class=\"redText\">Bad choice, the bee was angry.</span><br><b>You have been stung!</b><br>Your pay has been decreased by $0.10. Your bonus pay is now $0.32.</p>\n            ","response":0,"trial_type":"html-button-response","trial_index":114,"time_elapsed":434168,"internal_node_id":"0.0-4.0-1.51","subject_id":"608ac7cd42222f63f6fe7e14","study_id":"60edd13110225f80f9f3709b","session_id":"6196c1f58213d6fdff19a0da","condition":"contingent","relevant_dimensions":["antennae","wings"],"bee_group":{"antennae":"A","wings":"1","pattern":"X","legs":"X"},"bonus":0},{"rt":710.4000000059605,"stimulus":"bees-with-color/bee-B2SF.svg","response":0,"trial_type":"image-button-response","trial_index":115,"time_elapsed":434879,"internal_node_id":"0.0-4.0-0.52","subject_id":"608ac7cd42222f63f6fe7e14","study_id":"60edd13110225f80f9f3709b","session_id":"6196c1f58213d6fdff19a0da","condition":"contingent","relevant_dimensions":["antennae","wings"],"bee_group":{"antennae":"A","wings":"1","pattern":"X","legs":"X"},"action":"harvest","summary":"good-harvest","bonus":0},{"rt":410.90000000596046,"stimulus":"\n                    <p><b>Action: <em>harvest</em></b></p>\n                    <p>This is the bee that you just saw.</p>\n                    <img src=\"bees-with-color/bee-B2SF.svg\" width=\"200\">\n                    <p><span class=\"greenText\"><b>Successful harvest!</b></span><br>Your pay has increased by $0.02. Your bonus pay is now $0.34.</p>\n            ","response":0,"trial_type":"html-button-response","trial_index":116,"time_elapsed":435291,"internal_node_id":"0.0-4.0-1.52","subject_id":"608ac7cd42222f63f6fe7e14","study_id":"60edd13110225f80f9f3709b","session_id":"6196c1f58213d6fdff19a0da","condition":"contingent","relevant_dimensions":["antennae","wings"],"bee_group":{"antennae":"A","wings":"1","pattern":"X","legs":"X"},"bonus":0},{"rt":588.1999999880791,"stimulus":"bees-with-color/bee-A2SM.svg","response":0,"trial_type":"image-button-response","trial_index":117,"time_elapsed":435880,"internal_node_id":"0.0-4.0-0.53","subject_id":"608ac7cd42222f63f6fe7e14","study_id":"60edd13110225f80f9f3709b","session_id":"6196c1f58213d6fdff19a0da","condition":"contingent","relevant_dimensions":["antennae","wings"],"bee_group":{"antennae":"A","wings":"1","pattern":"X","legs":"X"},"action":"harvest","summary":"good-harvest","bonus":0},{"rt":665.3000000119209,"stimulus":"\n                    <p><b>Action: <em>harvest</em></b></p>\n                    <p>This is the bee that you just saw.</p>\n                    <img src=\"bees-with-color/bee-A2SM.svg\" width=\"200\">\n                    <p><span class=\"greenText\"><b>Successful harvest!</b></span><br>Your pay has increased by $0.02. Your bonus pay is now $0.36.</p>\n            ","response":0,"trial_type":"html-button-response","trial_index":118,"time_elapsed":436546,"internal_node_id":"0.0-4.0-1.53","subject_id":"608ac7cd42222f63f6fe7e14","study_id":"60edd13110225f80f9f3709b","session_id":"6196c1f58213d6fdff19a0da","condition":"contingent","relevant_dimensions":["antennae","wings"],"bee_group":{"antennae":"A","wings":"1","pattern":"X","legs":"X"},"bonus":0},{"rt":1117,"stimulus":"bees-with-color/bee-A1SF.svg","response":0,"trial_type":"image-button-response","trial_index":119,"time_elapsed":437664,"internal_node_id":"0.0-4.0-0.54","subject_id":"608ac7cd42222f63f6fe7e14","study_id":"60edd13110225f80f9f3709b","session_id":"6196c1f58213d6fdff19a0da","condition":"contingent","relevant_dimensions":["antennae","wings"],"bee_group":{"antennae":"A","wings":"1","pattern":"X","legs":"X"},"action":"harvest","summary":"bad-harvest","bonus":0},{"rt":1514.9000000059605,"stimulus":"\n                    <p><b>Action: <em>harvest</em></b></p>\n                    <p>This is the bee that you just saw.</p>\n                    <img src=\"bees-with-color/bee-A1SF.svg\" width=\"200\">\n                    <p><span class=\"redText\">Bad choice, the bee was angry.</span><br><b>You have been stung!</b><br>Your pay has been decreased by $0.10. Your bonus pay is now $0.26.</p>\n            ","response":0,"trial_type":"html-button-response","trial_index":120,"time_elapsed":439179,"internal_node_id":"0.0-4.0-1.54","subject_id":"608ac7cd42222f63f6fe7e14","study_id":"60edd13110225f80f9f3709b","session_id":"6196c1f58213d6fdff19a0da","condition":"contingent","relevant_dimensions":["antennae","wings"],"bee_group":{"antennae":"A","wings":"1","pattern":"X","legs":"X"},"bonus":0},{"rt":1187.0999999940395,"stimulus":"bees-with-color/bee-B1SF.svg","response":0,"trial_type":"image-button-response","trial_index":121,"time_elapsed":440368,"internal_node_id":"0.0-4.0-0.55","subject_id":"608ac7cd42222f63f6fe7e14","study_id":"60edd13110225f80f9f3709b","session_id":"6196c1f58213d6fdff19a0da","condition":"contingent","relevant_dimensions":["antennae","wings"],"bee_group":{"antennae":"A","wings":"1","pattern":"X","legs":"X"},"action":"harvest","summary":"good-harvest","bonus":0},{"rt":711.2999999970198,"stimulus":"\n                    <p><b>Action: <em>harvest</em></b></p>\n                    <p>This is the bee that you just saw.</p>\n                    <img src=\"bees-with-color/bee-B1SF.svg\" width=\"200\">\n                    <p><span class=\"greenText\"><b>Successful harvest!</b></span><br>Your pay has increased by $0.02. Your bonus pay is now $0.28.</p>\n            ","response":0,"trial_type":"html-button-response","trial_index":122,"time_elapsed":441080,"internal_node_id":"0.0-4.0-1.55","subject_id":"608ac7cd42222f63f6fe7e14","study_id":"60edd13110225f80f9f3709b","session_id":"6196c1f58213d6fdff19a0da","condition":"contingent","relevant_dimensions":["antennae","wings"],"bee_group":{"antennae":"A","wings":"1","pattern":"X","legs":"X"},"bonus":0},{"rt":686.2000000029802,"stimulus":"bees-with-color/bee-B2DF.svg","response":0,"trial_type":"image-button-response","trial_index":123,"time_elapsed":441766,"internal_node_id":"0.0-4.0-0.56","subject_id":"608ac7cd42222f63f6fe7e14","study_id":"60edd13110225f80f9f3709b","session_id":"6196c1f58213d6fdff19a0da","condition":"contingent","relevant_dimensions":["antennae","wings"],"bee_group":{"antennae":"A","wings":"1","pattern":"X","legs":"X"},"action":"harvest","summary":"good-harvest","bonus":0},{"rt":402.29999999701977,"stimulus":"\n                    <p><b>Action: <em>harvest</em></b></p>\n                    <p>This is the bee that you just saw.</p>\n                    <img src=\"bees-with-color/bee-B2DF.svg\" width=\"200\">\n                    <p><span class=\"greenText\"><b>Successful harvest!</b></span><br>Your pay has increased by $0.02. Your bonus pay is now $0.30.</p>\n            ","response":0,"trial_type":"html-button-response","trial_index":124,"time_elapsed":442170,"internal_node_id":"0.0-4.0-1.56","subject_id":"608ac7cd42222f63f6fe7e14","study_id":"60edd13110225f80f9f3709b","session_id":"6196c1f58213d6fdff19a0da","condition":"contingent","relevant_dimensions":["antennae","wings"],"bee_group":{"antennae":"A","wings":"1","pattern":"X","legs":"X"},"bonus":0},{"rt":1473.2000000029802,"stimulus":"bees-with-color/bee-A1DF.svg","response":0,"trial_type":"image-button-response","trial_index":125,"time_elapsed":443644,"internal_node_id":"0.0-4.0-0.57","subject_id":"608ac7cd42222f63f6fe7e14","study_id":"60edd13110225f80f9f3709b","session_id":"6196c1f58213d6fdff19a0da","condition":"contingent","relevant_dimensions":["antennae","wings"],"bee_group":{"antennae":"A","wings":"1","pattern":"X","legs":"X"},"action":"harvest","summary":"bad-harvest","bonus":0},{"rt":605,"stimulus":"\n                    <p><b>Action: <em>harvest</em></b></p>\n                    <p>This is the bee that you just saw.</p>\n                    <img src=\"bees-with-color/bee-A1DF.svg\" width=\"200\">\n                    <p><span class=\"redText\">Bad choice, the bee was angry.</span><br><b>You have been stung!</b><br>Your pay has been decreased by $0.10. Your bonus pay is now $0.20.</p>\n            ","response":0,"trial_type":"html-button-response","trial_index":126,"time_elapsed":444250,"internal_node_id":"0.0-4.0-1.57","subject_id":"608ac7cd42222f63f6fe7e14","study_id":"60edd13110225f80f9f3709b","session_id":"6196c1f58213d6fdff19a0da","condition":"contingent","relevant_dimensions":["antennae","wings"],"bee_group":{"antennae":"A","wings":"1","pattern":"X","legs":"X"},"bonus":0},{"rt":420,"stimulus":"bees-with-color/bee-B1DM.svg","response":0,"trial_type":"image-button-response","trial_index":127,"time_elapsed":444671,"internal_node_id":"0.0-4.0-0.58","subject_id":"608ac7cd42222f63f6fe7e14","study_id":"60edd13110225f80f9f3709b","session_id":"6196c1f58213d6fdff19a0da","condition":"contingent","relevant_dimensions":["antennae","wings"],"bee_group":{"antennae":"A","wings":"1","pattern":"X","legs":"X"},"action":"harvest","summary":"good-harvest","bonus":0},{"rt":834.0999999940395,"stimulus":"\n                    <p><b>Action: <em>harvest</em></b></p>\n                    <p>This is the bee that you just saw.</p>\n                    <img src=\"bees-with-color/bee-B1DM.svg\" width=\"200\">\n                    <p><span class=\"greenText\"><b>Successful harvest!</b></span><br>Your pay has increased by $0.02. Your bonus pay is now $0.22.</p>\n            ","response":0,"trial_type":"html-button-response","trial_index":128,"time_elapsed":445506,"internal_node_id":"0.0-4.0-1.58","subject_id":"608ac7cd42222f63f6fe7e14","study_id":"60edd13110225f80f9f3709b","session_id":"6196c1f58213d6fdff19a0da","condition":"contingent","relevant_dimensions":["antennae","wings"],"bee_group":{"antennae":"A","wings":"1","pattern":"X","legs":"X"},"bonus":0},{"rt":361.19999998807907,"stimulus":"bees-with-color/bee-B1DF.svg","response":0,"trial_type":"image-button-response","trial_index":129,"time_elapsed":445868,"internal_node_id":"0.0-4.0-0.59","subject_id":"608ac7cd42222f63f6fe7e14","study_id":"60edd13110225f80f9f3709b","session_id":"6196c1f58213d6fdff19a0da","condition":"contingent","relevant_dimensions":["antennae","wings"],"bee_group":{"antennae":"A","wings":"1","pattern":"X","legs":"X"},"action":"harvest","summary":"good-harvest","bonus":0},{"rt":453.09999999403954,"stimulus":"\n                    <p><b>Action: <em>harvest</em></b></p>\n                    <p>This is the bee that you just saw.</p>\n                    <img src=\"bees-with-color/bee-B1DF.svg\" width=\"200\">\n                    <p><span class=\"greenText\"><b>Successful harvest!</b></span><br>Your pay has increased by $0.02. Your bonus pay is now $0.24.</p>\n            ","response":0,"trial_type":"html-button-response","trial_index":130,"time_elapsed":446322,"internal_node_id":"0.0-4.0-1.59","subject_id":"608ac7cd42222f63f6fe7e14","study_id":"60edd13110225f80f9f3709b","session_id":"6196c1f58213d6fdff19a0da","condition":"contingent","relevant_dimensions":["antennae","wings"],"bee_group":{"antennae":"A","wings":"1","pattern":"X","legs":"X"},"bonus":0},{"rt":1047.2000000029802,"stimulus":"bees-with-color/bee-A2DF.svg","response":1,"trial_type":"image-button-response","trial_index":131,"time_elapsed":447370,"internal_node_id":"0.0-4.0-0.60","subject_id":"608ac7cd42222f63f6fe7e14","study_id":"60edd13110225f80f9f3709b","session_id":"6196c1f58213d6fdff19a0da","condition":"contingent","relevant_dimensions":["antennae","wings"],"bee_group":{"antennae":"A","wings":"1","pattern":"X","legs":"X"},"action":"avoid","summary":"bad-avoid","bonus":0},{"rt":581,"stimulus":"\n                    <p><b>Action: <em>avoid</em></b></p>\n                    <p>This is the bee that you just saw.</p>\n                    <img src=\"bees-with-color/bee-A2DF.svg\" width=\"200\">\n                    <p><br>Your bonus pay is unchanged, and remains at $0.24.</p>\n            ","response":0,"trial_type":"html-button-response","trial_index":132,"time_elapsed":447952,"internal_node_id":"0.0-4.0-1.60","subject_id":"608ac7cd42222f63f6fe7e14","study_id":"60edd13110225f80f9f3709b","session_id":"6196c1f58213d6fdff19a0da","condition":"contingent","relevant_dimensions":["antennae","wings"],"bee_group":{"antennae":"A","wings":"1","pattern":"X","legs":"X"},"bonus":0},{"rt":590.1000000089407,"stimulus":"bees-with-color/bee-B2SM.svg","response":0,"trial_type":"image-button-response","trial_index":133,"time_elapsed":448543,"internal_node_id":"0.0-4.0-0.61","subject_id":"608ac7cd42222f63f6fe7e14","study_id":"60edd13110225f80f9f3709b","session_id":"6196c1f58213d6fdff19a0da","condition":"contingent","relevant_dimensions":["antennae","wings"],"bee_group":{"antennae":"A","wings":"1","pattern":"X","legs":"X"},"action":"harvest","summary":"good-harvest","bonus":0},{"rt":444.20000000298023,"stimulus":"\n                    <p><b>Action: <em>harvest</em></b></p>\n                    <p>This is the bee that you just saw.</p>\n                    <img src=\"bees-with-color/bee-B2SM.svg\" width=\"200\">\n                    <p><span class=\"greenText\"><b>Successful harvest!</b></span><br>Your pay has increased by $0.02. Your bonus pay is now $0.26.</p>\n            ","response":0,"trial_type":"html-button-response","trial_index":134,"time_elapsed":448988,"internal_node_id":"0.0-4.0-1.61","subject_id":"608ac7cd42222f63f6fe7e14","study_id":"60edd13110225f80f9f3709b","session_id":"6196c1f58213d6fdff19a0da","condition":"contingent","relevant_dimensions":["antennae","wings"],"bee_group":{"antennae":"A","wings":"1","pattern":"X","legs":"X"},"bonus":0},{"rt":424.19999998807907,"stimulus":"bees-with-color/bee-A2DM.svg","response":0,"trial_type":"image-button-response","trial_index":135,"time_elapsed":449413,"internal_node_id":"0.0-4.0-0.62","subject_id":"608ac7cd42222f63f6fe7e14","study_id":"60edd13110225f80f9f3709b","session_id":"6196c1f58213d6fdff19a0da","condition":"contingent","relevant_dimensions":["antennae","wings"],"bee_group":{"antennae":"A","wings":"1","pattern":"X","legs":"X"},"action":"harvest","summary":"good-harvest","bonus":0},{"rt":669.2000000029802,"stimulus":"\n                    <p><b>Action: <em>harvest</em></b></p>\n                    <p>This is the bee that you just saw.</p>\n                    <img src=\"bees-with-color/bee-A2DM.svg\" width=\"200\">\n                    <p><span class=\"greenText\"><b>Successful harvest!</b></span><br>Your pay has increased by $0.02. Your bonus pay is now $0.28.</p>\n            ","response":0,"trial_type":"html-button-response","trial_index":136,"time_elapsed":450083,"internal_node_id":"0.0-4.0-1.62","subject_id":"608ac7cd42222f63f6fe7e14","study_id":"60edd13110225f80f9f3709b","session_id":"6196c1f58213d6fdff19a0da","condition":"contingent","relevant_dimensions":["antennae","wings"],"bee_group":{"antennae":"A","wings":"1","pattern":"X","legs":"X"},"bonus":0},{"rt":702.2999999970198,"stimulus":"bees-with-color/bee-A1SM.svg","response":0,"trial_type":"image-button-response","trial_index":137,"time_elapsed":450786,"internal_node_id":"0.0-4.0-0.63","subject_id":"608ac7cd42222f63f6fe7e14","study_id":"60edd13110225f80f9f3709b","session_id":"6196c1f58213d6fdff19a0da","condition":"contingent","relevant_dimensions":["antennae","wings"],"bee_group":{"antennae":"A","wings":"1","pattern":"X","legs":"X"},"action":"harvest","summary":"bad-harvest","bonus":0},{"rt":769,"stimulus":"\n                    <p><b>Action: <em>harvest</em></b></p>\n                    <p>This is the bee that you just saw.</p>\n                    <img src=\"bees-with-color/bee-A1SM.svg\" width=\"200\">\n                    <p><span class=\"redText\">Bad choice, the bee was angry.</span><br><b>You have been stung!</b><br>Your pay has been decreased by $0.10. Your bonus pay is now $0.18.</p>\n            ","response":0,"trial_type":"html-button-response","trial_index":138,"time_elapsed":451556,"internal_node_id":"0.0-4.0-1.63","subject_id":"608ac7cd42222f63f6fe7e14","study_id":"60edd13110225f80f9f3709b","session_id":"6196c1f58213d6fdff19a0da","condition":"contingent","relevant_dimensions":["antennae","wings"],"bee_group":{"antennae":"A","wings":"1","pattern":"X","legs":"X"},"bonus":0},{"rt":3908.3999999910593,"stimulus":"You have completed the first part of this experiment.<br><br>You will now begin a shorter second part, in which you will receive no feedback.<br>The same rules regarding bonus pay apply.<br><br>Press any key to begin.","response":"shift","trial_type":"html-keyboard-response","trial_index":139,"time_elapsed":455465,"internal_node_id":"0.0-5.0","subject_id":"608ac7cd42222f63f6fe7e14","study_id":"60edd13110225f80f9f3709b","session_id":"6196c1f58213d6fdff19a0da","condition":"contingent","relevant_dimensions":["antennae","wings"],"bee_group":{"antennae":"A","wings":"1","pattern":"X","legs":"X"},"bonus":0},{"rt":2224.8999999910593,"stimulus":"bees-with-color/bee-A2SF.svg","response":0,"trial_type":"image-button-response","trial_index":140,"time_elapsed":457697,"internal_node_id":"0.0-6.0-0.0","subject_id":"608ac7cd42222f63f6fe7e14","study_id":"60edd13110225f80f9f3709b","session_id":"6196c1f58213d6fdff19a0da","condition":"contingent","relevant_dimensions":["antennae","wings"],"bee_group":{"antennae":"A","wings":"1","pattern":"X","legs":"X"},"bonus":0},{"rt":1910.3999999910593,"stimulus":"bees-with-color/bee-B2SM.svg","response":0,"trial_type":"image-button-response","trial_index":141,"time_elapsed":459608,"internal_node_id":"0.0-6.0-0.1","subject_id":"608ac7cd42222f63f6fe7e14","study_id":"60edd13110225f80f9f3709b","session_id":"6196c1f58213d6fdff19a0da","condition":"contingent","relevant_dimensions":["antennae","wings"],"bee_group":{"antennae":"A","wings":"1","pattern":"X","legs":"X"},"bonus":0},{"rt":880.0999999940395,"stimulus":"bees-with-color/bee-B1SM.svg","response":1,"trial_type":"image-button-response","trial_index":142,"time_elapsed":460490,"internal_node_id":"0.0-6.0-0.2","subject_id":"608ac7cd42222f63f6fe7e14","study_id":"60edd13110225f80f9f3709b","session_id":"6196c1f58213d6fdff19a0da","condition":"contingent","relevant_dimensions":["antennae","wings"],"bee_group":{"antennae":"A","wings":"1","pattern":"X","legs":"X"},"bonus":0},{"rt":348.79999999701977,"stimulus":"bees-with-color/bee-B1DM.svg","response":0,"trial_type":"image-button-response","trial_index":143,"time_elapsed":460840,"internal_node_id":"0.0-6.0-0.3","subject_id":"608ac7cd42222f63f6fe7e14","study_id":"60edd13110225f80f9f3709b","session_id":"6196c1f58213d6fdff19a0da","condition":"contingent","relevant_dimensions":["antennae","wings"],"bee_group":{"antennae":"A","wings":"1","pattern":"X","legs":"X"},"bonus":0},{"rt":288.29999999701977,"stimulus":"bees-with-color/bee-A1DM.svg","response":1,"trial_type":"image-button-response","trial_index":144,"time_elapsed":461129,"internal_node_id":"0.0-6.0-0.4","subject_id":"608ac7cd42222f63f6fe7e14","study_id":"60edd13110225f80f9f3709b","session_id":"6196c1f58213d6fdff19a0da","condition":"contingent","relevant_dimensions":["antennae","wings"],"bee_group":{"antennae":"A","wings":"1","pattern":"X","legs":"X"},"bonus":0},{"rt":301.29999999701977,"stimulus":"bees-with-color/bee-B2DM.svg","response":0,"trial_type":"image-button-response","trial_index":145,"time_elapsed":461432,"internal_node_id":"0.0-6.0-0.5","subject_id":"608ac7cd42222f63f6fe7e14","study_id":"60edd13110225f80f9f3709b","session_id":"6196c1f58213d6fdff19a0da","condition":"contingent","relevant_dimensions":["antennae","wings"],"bee_group":{"antennae":"A","wings":"1","pattern":"X","legs":"X"},"bonus":0},{"rt":308.79999999701977,"stimulus":"bees-with-color/bee-A1DF.svg","response":1,"trial_type":"image-button-response","trial_index":146,"time_elapsed":461742,"internal_node_id":"0.0-6.0-0.6","subject_id":"608ac7cd42222f63f6fe7e14","study_id":"60edd13110225f80f9f3709b","session_id":"6196c1f58213d6fdff19a0da","condition":"contingent","relevant_dimensions":["antennae","wings"],"bee_group":{"antennae":"A","wings":"1","pattern":"X","legs":"X"},"bonus":0},{"rt":194.79999999701977,"stimulus":"bees-with-color/bee-A2DF.svg","response":1,"trial_type":"image-button-response","trial_index":147,"time_elapsed":461938,"internal_node_id":"0.0-6.0-0.7","subject_id":"608ac7cd42222f63f6fe7e14","study_id":"60edd13110225f80f9f3709b","session_id":"6196c1f58213d6fdff19a0da","condition":"contingent","relevant_dimensions":["antennae","wings"],"bee_group":{"antennae":"A","wings":"1","pattern":"X","legs":"X"},"bonus":0},{"rt":317,"stimulus":"bees-with-color/bee-A1SF.svg","response":0,"trial_type":"image-button-response","trial_index":148,"time_elapsed":462256,"internal_node_id":"0.0-6.0-0.8","subject_id":"608ac7cd42222f63f6fe7e14","study_id":"60edd13110225f80f9f3709b","session_id":"6196c1f58213d6fdff19a0da","condition":"contingent","relevant_dimensions":["antennae","wings"],"bee_group":{"antennae":"A","wings":"1","pattern":"X","legs":"X"},"bonus":0},{"rt":530.6999999880791,"stimulus":"bees-with-color/bee-B1SF.svg","response":1,"trial_type":"image-button-response","trial_index":149,"time_elapsed":462788,"internal_node_id":"0.0-6.0-0.9","subject_id":"608ac7cd42222f63f6fe7e14","study_id":"60edd13110225f80f9f3709b","session_id":"6196c1f58213d6fdff19a0da","condition":"contingent","relevant_dimensions":["antennae","wings"],"bee_group":{"antennae":"A","wings":"1","pattern":"X","legs":"X"},"bonus":0},{"rt":555.7999999970198,"stimulus":"bees-with-color/bee-B1DF.svg","response":0,"trial_type":"image-button-response","trial_index":150,"time_elapsed":463345,"internal_node_id":"0.0-6.0-0.10","subject_id":"608ac7cd42222f63f6fe7e14","study_id":"60edd13110225f80f9f3709b","session_id":"6196c1f58213d6fdff19a0da","condition":"contingent","relevant_dimensions":["antennae","wings"],"bee_group":{"antennae":"A","wings":"1","pattern":"X","legs":"X"},"bonus":0},{"rt":367.70000000298023,"stimulus":"bees-with-color/bee-A2SM.svg","response":1,"trial_type":"image-button-response","trial_index":151,"time_elapsed":463714,"internal_node_id":"0.0-6.0-0.11","subject_id":"608ac7cd42222f63f6fe7e14","study_id":"60edd13110225f80f9f3709b","session_id":"6196c1f58213d6fdff19a0da","condition":"contingent","relevant_dimensions":["antennae","wings"],"bee_group":{"antennae":"A","wings":"1","pattern":"X","legs":"X"},"bonus":0},{"rt":345.59999999403954,"stimulus":"bees-with-color/bee-A1SM.svg","response":0,"trial_type":"image-button-response","trial_index":152,"time_elapsed":464061,"internal_node_id":"0.0-6.0-0.12","subject_id":"608ac7cd42222f63f6fe7e14","study_id":"60edd13110225f80f9f3709b","session_id":"6196c1f58213d6fdff19a0da","condition":"contingent","relevant_dimensions":["antennae","wings"],"bee_group":{"antennae":"A","wings":"1","pattern":"X","legs":"X"},"bonus":0},{"rt":990.5999999940395,"stimulus":"bees-with-color/bee-A2DM.svg","response":1,"trial_type":"image-button-response","trial_index":153,"time_elapsed":465053,"internal_node_id":"0.0-6.0-0.13","subject_id":"608ac7cd42222f63f6fe7e14","study_id":"60edd13110225f80f9f3709b","session_id":"6196c1f58213d6fdff19a0da","condition":"contingent","relevant_dimensions":["antennae","wings"],"bee_group":{"antennae":"A","wings":"1","pattern":"X","legs":"X"},"bonus":0},{"rt":403.69999998807907,"stimulus":"bees-with-color/bee-B2DF.svg","response":0,"trial_type":"image-button-response","trial_index":154,"time_elapsed":465458,"internal_node_id":"0.0-6.0-0.14","subject_id":"608ac7cd42222f63f6fe7e14","study_id":"60edd13110225f80f9f3709b","session_id":"6196c1f58213d6fdff19a0da","condition":"contingent","relevant_dimensions":["antennae","wings"],"bee_group":{"antennae":"A","wings":"1","pattern":"X","legs":"X"},"bonus":0},{"rt":481.6000000089407,"stimulus":"bees-with-color/bee-B2SF.svg","response":1,"trial_type":"image-button-response","trial_index":155,"time_elapsed":465941,"internal_node_id":"0.0-6.0-0.15","subject_id":"608ac7cd42222f63f6fe7e14","study_id":"60edd13110225f80f9f3709b","session_id":"6196c1f58213d6fdff19a0da","condition":"contingent","relevant_dimensions":["antennae","wings"],"bee_group":{"antennae":"A","wings":"1","pattern":"X","legs":"X"},"bonus":0},{"rt":540.1999999880791,"stimulus":"bees-with-color/bee-B2DM.svg","response":0,"trial_type":"image-button-response","trial_index":156,"time_elapsed":466482,"internal_node_id":"0.0-6.0-0.16","subject_id":"608ac7cd42222f63f6fe7e14","study_id":"60edd13110225f80f9f3709b","session_id":"6196c1f58213d6fdff19a0da","condition":"contingent","relevant_dimensions":["antennae","wings"],"bee_group":{"antennae":"A","wings":"1","pattern":"X","legs":"X"},"bonus":0},{"rt":375,"stimulus":"bees-with-color/bee-A2SM.svg","response":1,"trial_type":"image-button-response","trial_index":157,"time_elapsed":466858,"internal_node_id":"0.0-6.0-0.17","subject_id":"608ac7cd42222f63f6fe7e14","study_id":"60edd13110225f80f9f3709b","session_id":"6196c1f58213d6fdff19a0da","condition":"contingent","relevant_dimensions":["antennae","wings"],"bee_group":{"antennae":"A","wings":"1","pattern":"X","legs":"X"},"bonus":0},{"rt":256.79999999701977,"stimulus":"bees-with-color/bee-A2DF.svg","response":1,"trial_type":"image-button-response","trial_index":158,"time_elapsed":467116,"internal_node_id":"0.0-6.0-0.18","subject_id":"608ac7cd42222f63f6fe7e14","study_id":"60edd13110225f80f9f3709b","session_id":"6196c1f58213d6fdff19a0da","condition":"contingent","relevant_dimensions":["antennae","wings"],"bee_group":{"antennae":"A","wings":"1","pattern":"X","legs":"X"},"bonus":0},{"rt":319.90000000596046,"stimulus":"bees-with-color/bee-B1SM.svg","response":0,"trial_type":"image-button-response","trial_index":159,"time_elapsed":467437,"internal_node_id":"0.0-6.0-0.19","subject_id":"608ac7cd42222f63f6fe7e14","study_id":"60edd13110225f80f9f3709b","session_id":"6196c1f58213d6fdff19a0da","condition":"contingent","relevant_dimensions":["antennae","wings"],"bee_group":{"antennae":"A","wings":"1","pattern":"X","legs":"X"},"bonus":0},{"rt":309.6000000089407,"stimulus":"bees-with-color/bee-A1DF.svg","response":1,"trial_type":"image-button-response","trial_index":160,"time_elapsed":467747,"internal_node_id":"0.0-6.0-0.20","subject_id":"608ac7cd42222f63f6fe7e14","study_id":"60edd13110225f80f9f3709b","session_id":"6196c1f58213d6fdff19a0da","condition":"contingent","relevant_dimensions":["antennae","wings"],"bee_group":{"antennae":"A","wings":"1","pattern":"X","legs":"X"},"bonus":0},{"rt":353.40000000596046,"stimulus":"bees-with-color/bee-B2DF.svg","response":1,"trial_type":"image-button-response","trial_index":161,"time_elapsed":468102,"internal_node_id":"0.0-6.0-0.21","subject_id":"608ac7cd42222f63f6fe7e14","study_id":"60edd13110225f80f9f3709b","session_id":"6196c1f58213d6fdff19a0da","condition":"contingent","relevant_dimensions":["antennae","wings"],"bee_group":{"antennae":"A","wings":"1","pattern":"X","legs":"X"},"bonus":0},{"rt":232.70000000298023,"stimulus":"bees-with-color/bee-A1SF.svg","response":0,"trial_type":"image-button-response","trial_index":162,"time_elapsed":468336,"internal_node_id":"0.0-6.0-0.22","subject_id":"608ac7cd42222f63f6fe7e14","study_id":"60edd13110225f80f9f3709b","session_id":"6196c1f58213d6fdff19a0da","condition":"contingent","relevant_dimensions":["antennae","wings"],"bee_group":{"antennae":"A","wings":"1","pattern":"X","legs":"X"},"bonus":0},{"rt":262.29999999701977,"stimulus":"bees-with-color/bee-B2SF.svg","response":1,"trial_type":"image-button-response","trial_index":163,"time_elapsed":468599,"internal_node_id":"0.0-6.0-0.23","subject_id":"608ac7cd42222f63f6fe7e14","study_id":"60edd13110225f80f9f3709b","session_id":"6196c1f58213d6fdff19a0da","condition":"contingent","relevant_dimensions":["antennae","wings"],"bee_group":{"antennae":"A","wings":"1","pattern":"X","legs":"X"},"bonus":0},{"rt":306.70000000298023,"stimulus":"bees-with-color/bee-A2DM.svg","response":0,"trial_type":"image-button-response","trial_index":164,"time_elapsed":468907,"internal_node_id":"0.0-6.0-0.24","subject_id":"608ac7cd42222f63f6fe7e14","study_id":"60edd13110225f80f9f3709b","session_id":"6196c1f58213d6fdff19a0