[{"success":true,"trial_type":"fullscreen","trial_index":0,"time_elapsed":1924,"internal_node_id":"0.0-0.0","subject_id":"616883b802e3b6d0fb70d603","study_id":"60edd13110225f80f9f3709b","session_id":"6196c1f2be766dda3ab8e5ce","condition":"contingent","relevant_dimensions":["wings","pattern"],"bee_group":{"antennae":"X","wings":"1","pattern":"D","legs":"X"},"bonus":1.2800000000000014},{"success":true,"timeout":false,"failed_images":[],"failed_audio":[],"failed_video":[],"trial_type":"preload","trial_index":1,"time_elapsed":2026,"internal_node_id":"0.0-1.0","subject_id":"616883b802e3b6d0fb70d603","study_id":"60edd13110225f80f9f3709b","session_id":"6196c1f2be766dda3ab8e5ce","condition":"contingent","relevant_dimensions":["wings","pattern"],"bee_group":{"antennae":"X","wings":"1","pattern":"D","legs":"X"},"bonus":1.2800000000000014},{"rt":1983.699999999255,"stimulus":"Welcome! Press any key to begin.","response":"u","trial_type":"html-keyboard-response","trial_index":2,"time_elapsed":4011,"internal_node_id":"0.0-2.0","subject_id":"616883b802e3b6d0fb70d603","study_id":"60edd13110225f80f9f3709b","session_id":"6196c1f2be766dda3ab8e5ce","condition":"contingent","relevant_dimensions":["wings","pattern"],"bee_group":{"antennae":"X","wings":"1","pattern":"D","legs":"X"},"bonus":1.2800000000000014},{"view_history":[{"page_index":0,"viewing_time":682.1999999992549},{"page_index":1,"viewing_time":631.6000000014901},{"page_index":2,"viewing_time":546.1000000014901},{"page_index":3,"viewing_time":484},{"page_index":4,"viewing_time":436.0999999977648},{"page_index":5,"viewing_time":562},{"page_index":6,"viewing_time":662.3000000007451},{"page_index":7,"viewing_time":797.6000000014901},{"page_index":8,"viewing_time":642.1999999992549},{"page_index":9,"viewing_time":300.19999999925494},{"page_index":10,"viewing_time":355.8999999985099},{"page_index":11,"viewing_time":767.9000000022352},{"page_index":12,"viewing_time":743.8999999985099},{"page_index":13,"viewing_time":660.3000000007451},{"page_index":14,"viewing_time":1075.699999999255}],"rt":9348.199999999255,"trial_type":"instructions","trial_index":3,"time_elapsed":13359,"internal_node_id":"0.0-3.0-0.0","subject_id":"616883b802e3b6d0fb70d603","study_id":"60edd13110225f80f9f3709b","session_id":"6196c1f2be766dda3ab8e5ce","condition":"contingent","relevant_dimensions":["wings","pattern"],"bee_group":{"antennae":"X","wings":"1","pattern":"D","legs":"X"},"bonus":1.2800000000000014},{"rt":13420.199999999255,"response":{"Q0":["Two or six legs","Stripes or spots on body","Single or double wings","Antennae or no antennae"]},"question_order":[0],"trial_type":"survey-multi-select","trial_index":4,"time_elapsed":26783,"internal_node_id":"0.0-3.0-1.0","subject_id":"616883b802e3b6d0fb70d603","study_id":"60edd13110225f80f9f3709b","session_id":"6196c1f2be766dda3ab8e5ce","condition":"contingent","relevant_dimensions":["wings","pattern"],"bee_group":{"antennae":"X","wings":"1","pattern":"D","legs":"X"},"correct":true,"bonus":1.2800000000000014},{"rt":33624.599999997765,"response":{"Q1":"No.","Q2":"Based on the four features of the bee.","Q3":"You learn if it was friendly or dangerous, but do not alter your bonus."},"question_order":[0,1,2],"trial_type":"survey-multi-choice","trial_index":5,"time_elapsed":60410,"internal_node_id":"0.0-3.0-2.0","subject_id":"616883b802e3b6d0fb70d603","study_id":"60edd13110225f80f9f3709b","session_id":"6196c1f2be766dda3ab8e5ce","condition":"contingent","relevant_dimensions":["wings","pattern"],"bee_group":{"antennae":"X","wings":"1","pattern":"D","legs":"X"},"correct":false,"bonus":1.2800000000000014},{"rt":7956.29999999702,"stimulus":"<p>You did not answer all comprehension questions correctly.<br>Press <b>continue</b> to review the instructions again.</p>","response":0,"trial_type":"html-button-response","trial_index":6,"time_elapsed":68368,"internal_node_id":"0.0-3.0-3.0","subject_id":"616883b802e3b6d0fb70d603","study_id":"60edd13110225f80f9f3709b","session_id":"6196c1f2be766dda3ab8e5ce","condition":"contingent","relevant_dimensions":["wings","pattern"],"bee_group":{"antennae":"X","wings":"1","pattern":"D","legs":"X"},"bonus":1.2800000000000014},{"view_history":[{"page_index":0,"viewing_time":1222.5},{"page_index":1,"viewing_time":5008.29999999702},{"page_index":2,"viewing_time":538},{"page_index":3,"viewing_time":820},{"page_index":4,"viewing_time":400},{"page_index":5,"viewing_time":614.1000000014901},{"page_index":6,"viewing_time":406.19999999925494},{"page_index":7,"viewing_time":947.8000000007451},{"page_index":8,"viewing_time":244},{"page_index":9,"viewing_time":142.39999999850988},{"page_index":10,"viewing_time":353.70000000298023},{"page_index":11,"viewing_time":912.0999999977648},{"page_index":12,"viewing_time":849.8000000007451},{"page_index":13,"viewing_time":700},{"page_index":14,"viewing_time":474.19999999925494}],"rt":13633.39999999851,"trial_type":"instructions","trial_index":7,"time_elapsed":82002,"internal_node_id":"0.0-3.0-4.0-0.0","subject_id":"616883b802e3b6d0fb70d603","study_id":"60edd13110225f80f9f3709b","session_id":"6196c1f2be766dda3ab8e5ce","condition":"contingent","relevant_dimensions":["wings","pattern"],"bee_group":{"antennae":"X","wings":"1","pattern":"D","legs":"X"},"bonus":1.2800000000000014},{"rt":6757.60000000149,"response":{"Q0":["Two or six legs","Stripes or spots on body","Single or double wings","Antennae or no antennae"]},"question_order":[0],"trial_type":"survey-multi-select","trial_index":8,"time_elapsed":88763,"internal_node_id":"0.0-3.0-4.0-1.0","subject_id":"616883b802e3b6d0fb70d603","study_id":"60edd13110225f80f9f3709b","session_id":"6196c1f2be766dda3ab8e5ce","condition":"contingent","relevant_dimensions":["wings","pattern"],"bee_group":{"antennae":"X","wings":"1","pattern":"D","legs":"X"},"correct":true,"bonus":1.2800000000000014},{"rt":40853.79999999702,"response":{"Q1":"No.","Q2":"Based on the four features of the bee.","Q3":"You do not learn if it was friendly or dangerous, and do not alter your bonus."},"question_order":[0,1,2],"trial_type":"survey-multi-choice","trial_index":9,"time_elapsed":129618,"internal_node_id":"0.0-3.0-4.0-2.0","subject_id":"616883b802e3b6d0fb70d603","study_id":"60edd13110225f80f9f3709b","session_id":"6196c1f2be766dda3ab8e5ce","condition":"contingent","relevant_dimensions":["wings","pattern"],"bee_group":{"antennae":"X","wings":"1","pattern":"D","legs":"X"},"correct":true,"bonus":1.2800000000000014},{"rt":9165,"stimulus":"<p>Congrats, you got everything right<br>When you're ready, click the button below to continue to the experiment.</p>","response":0,"trial_type":"html-button-response","trial_index":10,"time_elapsed":138784,"internal_node_id":"0.0-3.0-4.0-3.0","subject_id":"616883b802e3b6d0fb70d603","study_id":"60edd13110225f80f9f3709b","session_id":"6196c1f2be766dda3ab8e5ce","condition":"contingent","relevant_dimensions":["wings","pattern"],"bee_group":{"antennae":"X","wings":"1","pattern":"D","legs":"X"},"bonus":1.2800000000000014},{"rt":19666.39999999851,"stimulus":"bees-with-color/bee-B1DF.svg","response":1,"trial_type":"image-button-response","trial_index":11,"time_elapsed":158453,"internal_node_id":"0.0-4.0-0.0","subject_id":"616883b802e3b6d0fb70d603","study_id":"60edd13110225f80f9f3709b","session_id":"6196c1f2be766dda3ab8e5ce","condition":"contingent","relevant_dimensions":["wings","pattern"],"bee_group":{"antennae":"X","wings":"1","pattern":"D","legs":"X"},"action":"avoid","summary":"good-avoid","bonus":1.2800000000000014},{"rt":16292.699999999255,"stimulus":"\n                    <p><b>Action: <em>avoid</em></b></p>\n                    <p>This is the bee that you just saw.</p>\n                    <img src=\"bees-with-color/bee-B1DF.svg\" width=\"200\">\n                    <p><br>Your bonus pay is unchanged, and remains at $0.54.</p>\n            ","response":0,"trial_type":"html-button-response","trial_index":12,"time_elapsed":174747,"internal_node_id":"0.0-4.0-1.0","subject_id":"616883b802e3b6d0fb70d603","study_id":"60edd13110225f80f9f3709b","session_id":"6196c1f2be766dda3ab8e5ce","condition":"contingent","relevant_dimensions":["wings","pattern"],"bee_group":{"antennae":"X","wings":"1","pattern":"D","legs":"X"},"bonus":1.2800000000000014},{"rt":3980.199999999255,"stimulus":"bees-with-color/bee-A1SF.svg","response":1,"trial_type":"image-button-response","trial_index":13,"time_elapsed":178729,"internal_node_id":"0.0-4.0-0.1","subject_id":"616883b802e3b6d0fb70d603","study_id":"60edd13110225f80f9f3709b","session_id":"6196c1f2be766dda3ab8e5ce","condition":"contingent","relevant_dimensions":["wings","pattern"],"bee_group":{"antennae":"X","wings":"1","pattern":"D","legs":"X"},"action":"avoid","summary":"bad-avoid","bonus":1.2800000000000014},{"rt":4066.7999999970198,"stimulus":"\n                    <p><b>Action: <em>avoid</em></b></p>\n                    <p>This is the bee that you just saw.</p>\n                    <img src=\"bees-with-color/bee-A1SF.svg\" width=\"200\">\n                    <p><br>Your bonus pay is unchanged, and remains at $0.54.</p>\n            ","response":0,"trial_type":"html-button-response","trial_index":14,"time_elapsed":182797,"internal_node_id":"0.0-4.0-1.1","subject_id":"616883b802e3b6d0fb70d603","study_id":"60edd13110225f80f9f3709b","session_id":"6196c1f2be766dda3ab8e5ce","condition":"contingent","relevant_dimensions":["wings","pattern"],"bee_group":{"antennae":"X","wings":"1","pattern":"D","legs":"X"},"bonus":1.2800000000000014},{"rt":4668.199999999255,"stimulus":"bees-with-color/bee-A2SM.svg","response":0,"trial_type":"image-button-response","trial_index":15,"time_elapsed":187467,"internal_node_id":"0.0-4.0-0.2","subject_id":"616883b802e3b6d0fb70d603","study_id":"60edd13110225f80f9f3709b","session_id":"6196c1f2be766dda3ab8e5ce","condition":"contingent","relevant_dimensions":["wings","pattern"],"bee_group":{"antennae":"X","wings":"1","pattern":"D","legs":"X"},"action":"harvest","summary":"good-harvest","bonus":1.2800000000000014},{"rt":2783,"stimulus":"\n                    <p><b>Action: <em>harvest</em></b></p>\n                    <p>This is the bee that you just saw.</p>\n                    <img src=\"bees-with-color/bee-A2SM.svg\" width=\"200\">\n                    <p><span class=\"greenText\"><b>Successful harvest!</b></span><br>Your pay has increased by $0.02. Your bonus pay is now $0.56.</p>\n            ","response":0,"trial_type":"html-button-response","trial_index":16,"time_elapsed":190251,"internal_node_id":"0.0-4.0-1.2","subject_id":"616883b802e3b6d0fb70d603","study_id":"60edd13110225f80f9f3709b","session_id":"6196c1f2be766dda3ab8e5ce","condition":"contingent","relevant_dimensions":["wings","pattern"],"bee_group":{"antennae":"X","wings":"1","pattern":"D","legs":"X"},"bonus":1.2800000000000014},{"rt":6259.60000000149,"stimulus":"bees-with-color/bee-A1DM.svg","response":0,"trial_type":"image-button-response","trial_index":17,"time_elapsed":196512,"internal_node_id":"0.0-4.0-0.3","subject_id":"616883b802e3b6d0fb70d603","study_id":"60edd13110225f80f9f3709b","session_id":"6196c1f2be766dda3ab8e5ce","condition":"contingent","relevant_dimensions":["wings","pattern"],"bee_group":{"antennae":"X","wings":"1","pattern":"D","legs":"X"},"action":"harvest","summary":"bad-harvest","bonus":1.2800000000000014},{"rt":41303.60000000149,"stimulus":"\n                    <p><b>Action: <em>harvest</em></b></p>\n                    <p>This is the bee that you just saw.</p>\n                    <img src=\"bees-with-color/bee-A1DM.svg\" width=\"200\">\n                    <p><span class=\"redText\">Bad choice, the bee was angry.</span><br><b>You have been stung!</b><br>Your pay has been decreased by $0.10. Your bonus pay is now $0.46.</p>\n            ","response":0,"trial_type":"html-button-response","trial_index":18,"time_elapsed":237817,"internal_node_id":"0.0-4.0-1.3","subject_id":"616883b802e3b6d0fb70d603","study_id":"60edd13110225f80f9f3709b","session_id":"6196c1f2be766dda3ab8e5ce","condition":"contingent","relevant_dimensions":["wings","pattern"],"bee_group":{"antennae":"X","wings":"1","pattern":"D","legs":"X"},"bonus":1.2800000000000014},{"rt":17455.29999999702,"stimulus":"bees-with-color/bee-B2SF.svg","response":0,"trial_type":"image-button-response","trial_index":19,"time_elapsed":255274,"internal_node_id":"0.0-4.0-0.4","subject_id":"616883b802e3b6d0fb70d603","study_id":"60edd13110225f80f9f3709b","session_id":"6196c1f2be766dda3ab8e5ce","condition":"contingent","relevant_dimensions":["wings","pattern"],"bee_group":{"antennae":"X","wings":"1","pattern":"D","legs":"X"},"action":"harvest","summary":"good-harvest","bonus":1.2800000000000014},{"rt":23355.400000002235,"stimulus":"\n                    <p><b>Action: <em>harvest</em></b></p>\n                    <p>This is the bee that you just saw.</p>\n                    <img src=\"bees-with-color/bee-B2SF.svg\" width=\"200\">\n                    <p><span class=\"greenText\"><b>Successful harvest!</b></span><br>Your pay has increased by $0.02. Your bonus pay is now $0.48.</p>\n            ","response":0,"trial_type":"html-button-response","trial_index":20,"time_elapsed":278631,"internal_node_id":"0.0-4.0-1.4","subject_id":"616883b802e3b6d0fb70d603","study_id":"60edd13110225f80f9f3709b","session_id":"6196c1f2be766dda3ab8e5ce","condition":"contingent","relevant_dimensions":["wings","pattern"],"bee_group":{"antennae":"X","wings":"1","pattern":"D","legs":"X"},"bonus":1.2800000000000014},{"rt":6056.699999999255,"stimulus":"bees-with-color/bee-A2DF.svg","response":1,"trial_type":"image-button-response","trial_index":21,"time_elapsed":284689,"internal_node_id":"0.0-4.0-0.5","subject_id":"616883b802e3b6d0fb70d603","study_id":"60edd13110225f80f9f3709b","session_id":"6196c1f2be766dda3ab8e5ce","condition":"contingent","relevant_dimensions":["wings","pattern"],"bee_group":{"antennae":"X","wings":"1","pattern":"D","legs":"X"},"action":"avoid","summary":"bad-avoid","bonus":1.2800000000000014},{"rt":3125,"stimulus":"\n                    <p><b>Action: <em>avoid</em></b></p>\n                    <p>This is the bee that you just saw.</p>\n                    <img src=\"bees-with-color/bee-A2DF.svg\" width=\"200\">\n                    <p><br>Your bonus pay is unchanged, and remains at $0.48.</p>\n            ","response":0,"trial_type":"html-button-response","trial_index":22,"time_elapsed":287815,"internal_node_id":"0.0-4.0-1.5","subject_id":"616883b802e3b6d0fb70d603","study_id":"60edd13110225f80f9f3709b","session_id":"6196c1f2be766dda3ab8e5ce","condition":"contingent","relevant_dimensions":["wings","pattern"],"bee_group":{"antennae":"X","wings":"1","pattern":"D","legs":"X"},"bonus":1.2800000000000014},{"rt":1910.4000000022352,"stimulus":"bees-with-color/bee-A1SM.svg","response":0,"trial_type":"image-button-response","trial_index":23,"time_elapsed":289727,"internal_node_id":"0.0-4.0-0.6","subject_id":"616883b802e3b6d0fb70d603","study_id":"60edd13110225f80f9f3709b","session_id":"6196c1f2be766dda3ab8e5ce","condition":"contingent","relevant_dimensions":["wings","pattern"],"bee_group":{"antennae":"X","wings":"1","pattern":"D","legs":"X"},"action":"harvest","summary":"good-harvest","bonus":1.2800000000000014},{"rt":28378.099999997765,"stimulus":"\n                    <p><b>Action: <em>harvest</em></b></p>\n                    <p>This is the bee that you just saw.</p>\n                    <img src=\"bees-with-color/bee-A1SM.svg\" width=\"200\">\n                    <p><span class=\"greenText\"><b>Successful harvest!</b></span><br>Your pay has increased by $0.02. Your bonus pay is now $0.50.</p>\n            ","response":0,"trial_type":"html-button-response","trial_index":24,"time_elapsed":318106,"internal_node_id":"0.0-4.0-1.6","subject_id":"616883b802e3b6d0fb70d603","study_id":"60edd13110225f80f9f3709b","session_id":"6196c1f2be766dda3ab8e5ce","condition":"contingent","relevant_dimensions":["wings","pattern"],"bee_group":{"antennae":"X","wings":"1","pattern":"D","legs":"X"},"bonus":1.2800000000000014},{"rt":23541.199999999255,"stimulus":"bees-with-color/bee-B2DF.svg","response":0,"trial_type":"image-button-response","trial_index":25,"time_elapsed":341649,"internal_node_id":"0.0-4.0-0.7","subject_id":"616883b802e3b6d0fb70d603","study_id":"60edd13110225f80f9f3709b","session_id":"6196c1f2be766dda3ab8e5ce","condition":"contingent","relevant_dimensions":["wings","pattern"],"bee_group":{"antennae":"X","wings":"1","pattern":"D","legs":"X"},"action":"harvest","summary":"good-harvest","bonus":1.2800000000000014},{"rt":70469.30000000075,"stimulus":"\n                    <p><b>Action: <em>harvest</em></b></p>\n                    <p>This is the bee that you just saw.</p>\n                    <img src=\"bees-with-color/bee-B2DF.svg\" width=\"200\">\n                    <p><span class=\"greenText\"><b>Successful harvest!</b></span><br>Your pay has increased by $0.02. Your bonus pay is now $0.52.</p>\n            ","response":0,"trial_type":"html-button-response","trial_index":26,"time_elapsed":412119,"internal_node_id":"0.0-4.0-1.7","subject_id":"616883b802e3b6d0fb70d603","study_id":"60edd13110225f80f9f3709b","session_id":"6196c1f2be766dda3ab8e5ce","condition":"contingent","relevant_dimensions":["wings","pattern"],"bee_group":{"antennae":"X","wings":"1","pattern":"D","legs":"X"},"bonus":1.2800000000000014},{"rt":18311,"stimulus":"bees-with-color/bee-A1DF.svg","response":1,"trial_type":"image-button-response","trial_index":27,"time_elapsed":430432,"internal_node_id":"0.0-4.0-0.8","subject_id":"616883b802e3b6d0fb70d603","study_id":"60edd13110225f80f9f3709b","session_id":"6196c1f2be766dda3ab8e5ce","condition":"contingent","relevant_dimensions":["wings","pattern"],"bee_group":{"antennae":"X","wings":"1","pattern":"D","legs":"X"},"action":"avoid","summary":"good-avoid","bonus":1.2800000000000014},{"rt":3707.10000000149,"stimulus":"\n                    <p><b>Action: <em>avoid</em></b></p>\n                    <p>This is the bee that you just saw.</p>\n                    <img src=\"bees-with-color/bee-A1DF.svg\" width=\"200\">\n                    <p><br>Your bonus pay is unchanged, and remains at $0.52.</p>\n            ","response":0,"trial_type":"html-button-response","trial_index":28,"time_elapsed":434140,"internal_node_id":"0.0-4.0-1.8","subject_id":"616883b802e3b6d0fb70d603","study_id":"60edd13110225f80f9f3709b","session_id":"6196c1f2be766dda3ab8e5ce","condition":"contingent","relevant_dimensions":["wings","pattern"],"bee_group":{"antennae":"X","wings":"1","pattern":"D","legs":"X"},"bonus":1.2800000000000014},{"rt":1670.800000000745,"stimulus":"bees-with-color/bee-B1SF.svg","response":0,"trial_type":"image-button-response","trial_index":29,"time_elapsed":435812,"internal_node_id":"0.0-4.0-0.9","subject_id":"616883b802e3b6d0fb70d603","study_id":"60edd13110225f80f9f3709b","session_id":"6196c1f2be766dda3ab8e5ce","condition":"contingent","relevant_dimensions":["wings","pattern"],"bee_group":{"antennae":"X","wings":"1","pattern":"D","legs":"X"},"action":"harvest","summary":"good-harvest","bonus":1.2800000000000014},{"rt":187811.09999999776,"stimulus":"\n                    <p><b>Action: <em>harvest</em></b></p>\n                    <p>This is the bee that you just saw.</p>\n                    <img src=\"bees-with-color/bee-B1SF.svg\" width=\"200\">\n                    <p><span class=\"greenText\"><b>Successful harvest!</b></span><br>Your pay has increased by $0.02. Your bonus pay is now $0.54.</p>\n            ","response":0,"trial_type":"html-button-response","trial_index":30,"time_elapsed":623624,"internal_node_id":"0.0-4.0-1.9","subject_id":"616883b802e3b6d0fb70d603","study_id":"60edd13110225f80f9f3709b","session_id":"6196c1f2be766dda3ab8e5ce","condition":"contingent","relevant_dimensions":["wings","pattern"],"bee_group":{"antennae":"X","wings":"1","pattern":"D","legs":"X"},"bonus":1.2800000000000014},{"rt":29139.79999999702,"stimulus":"bees-with-color/bee-B1DM.svg","response":0,"trial_type":"image-button-response","trial_index":31,"time_elapsed":652765,"internal_node_id":"0.0-4.0-0.10","subject_id":"616883b802e3b6d0fb70d603","study_id":"60edd13110225f80f9f3709b","session_id":"6196c1f2be766dda3ab8e5ce","condition":"contingent","relevant_dimensions":["wings","pattern"],"bee_group":{"antennae":"X","wings":"1","pattern":"D","legs":"X"},"action":"harvest","summary":"bad-harvest","bonus":1.2800000000000014},{"rt":39638.400000002235,"stimulus":"\n                    <p><b>Action: <em>harvest</em></b></p>\n                    <p>This is the bee that you just saw.</p>\n                    <img src=\"bees-with-color/bee-B1DM.svg\" width=\"200\">\n                    <p><span class=\"redText\">Bad choice, the bee was angry.</span><br><b>You have been stung!</b><br>Your pay has been decreased by $0.10. Your bonus pay is now $0.44.</p>\n            ","response":0,"trial_type":"html-button-response","trial_index":32,"time_elapsed":692405,"internal_node_id":"0.0-4.0-1.10","subject_id":"616883b802e3b6d0fb70d603","study_id":"60edd13110225f80f9f3709b","session_id":"6196c1f2be766dda3ab8e5ce","condition":"contingent","relevant_dimensions":["wings","pattern"],"bee_group":{"antennae":"X","wings":"1","pattern":"D","legs":"X"},"bonus":1.2800000000000014},{"rt":1724.800000000745,"stimulus":"bees-with-color/bee-B2SM.svg","response":0,"trial_type":"image-button-response","trial_index":33,"time_elapsed":694131,"internal_node_id":"0.0-4.0-0.11","subject_id":"616883b802e3b6d0fb70d603","study_id":"60edd13110225f80f9f3709b","session_id":"6196c1f2be766dda3ab8e5ce","condition":"contingent","relevant_dimensions":["wings","pattern"],"bee_group":{"antennae":"X","wings":"1","pattern":"D","legs":"X"},"action":"harvest","summary":"good-harvest","bonus":1.2800000000000014},{"rt":41724.199999999255,"stimulus":"\n                    <p><b>Action: <em>harvest</em></b></p>\n                    <p>This is the bee that you just saw.</p>\n                    <img src=\"bees-with-color/bee-B2SM.svg\" width=\"200\">\n                    <p><span class=\"greenText\"><b>Successful harvest!</b></span><br>Your pay has increased by $0.02. Your bonus pay is now $0.46.</p>\n            ","response":0,"trial_type":"html-button-response","trial_index":34,"time_elapsed":735856,"internal_node_id":"0.0-4.0-1.11","subject_id":"616883b802e3b6d0fb70d603","study_id":"60edd13110225f80f9f3709b","session_id":"6196c1f2be766dda3ab8e5ce","condition":"contingent","relevant_dimensions":["wings","pattern"],"bee_group":{"antennae":"X","wings":"1","pattern":"D","legs":"X"},"bonus":1.2800000000000014},{"rt":3589.300000000745,"stimulus":"bees-with-color/bee-B1SM.svg","response":0,"trial_type":"image-button-response","trial_index":35,"time_elapsed":739446,"internal_node_id":"0.0-4.0-0.12","subject_id":"616883b802e3b6d0fb70d603","study_id":"60edd13110225f80f9f3709b","session_id":"6196c1f2be766dda3ab8e5ce","condition":"contingent","relevant_dimensions":["wings","pattern"],"bee_group":{"antennae":"X","wings":"1","pattern":"D","legs":"X"},"action":"harvest","summary":"good-harvest","bonus":1.2800000000000014},{"rt":15505.199999999255,"stimulus":"\n                    <p><b>Action: <em>harvest</em></b></p>\n                    <p>This is the bee that you just saw.</p>\n                    <img src=\"bees-with-color/bee-B1SM.svg\" width=\"200\">\n                    <p><span class=\"greenText\"><b>Successful harvest!</b></span><br>Your pay has increased by $0.02. Your bonus pay is now $0.48.</p>\n            ","response":0,"trial_type":"html-button-response","trial_index":36,"time_elapsed":754953,"internal_node_id":"0.0-4.0-1.12","subject_id":"616883b802e3b6d0fb70d603","study_id":"60edd13110225f80f9f3709b","session_id":"6196c1f2be766dda3ab8e5ce","condition":"contingent","relevant_dimensions":["wings","pattern"],"bee_group":{"antennae":"X","wings":"1","pattern":"D","legs":"X"},"bonus":1.2800000000000014},{"rt":19871.599999997765,"stimulus":"bees-with-color/bee-A2SF.svg","response":1,"trial_type":"image-button-response","trial_index":37,"time_elapsed":774826,"internal_node_id":"0.0-4.0-0.13","subject_id":"616883b802e3b6d0fb70d603","study_id":"60edd13110225f80f9f3709b","session_id":"6196c1f2be766dda3ab8e5ce","condition":"contingent","relevant_dimensions":["wings","pattern"],"bee_group":{"antennae":"X","wings":"1","pattern":"D","legs":"X"},"action":"avoid","summary":"bad-avoid","bonus":1.2800000000000014},{"rt":1138.800000000745,"stimulus":"\n                    <p><b>Action: <em>avoid</em></b></p>\n                    <p>This is the bee that you just saw.</p>\n                    <img src=\"bees-with-color/bee-A2SF.svg\" width=\"200\">\n                    <p><br>Your bonus pay is unchanged, and remains at $0.48.</p>\n            ","response":0,"trial_type":"html-button-response","trial_index":38,"time_elapsed":775966,"internal_node_id":"0.0-4.0-1.13","subject_id":"616883b802e3b6d0fb70d603","study_id":"60edd13110225f80f9f3709b","session_id":"6196c1f2be766dda3ab8e5ce","condition":"contingent","relevant_dimensions":["wings","pattern"],"bee_group":{"antennae":"X","wings":"1","pattern":"D","legs":"X"},"bonus":1.2800000000000014},{"rt":19521.300000000745,"stimulus":"bees-with-color/bee-B2DM.svg","response":0,"trial_type":"image-button-response","trial_index":39,"time_elapsed":795488,"internal_node_id":"0.0-4.0-0.14","subject_id":"616883b802e3b6d0fb70d603","study_id":"60edd13110225f80f9f3709b","session_id":"6196c1f2be766dda3ab8e5ce","condition":"contingent","relevant_dimensions":["wings","pattern"],"bee_group":{"antennae":"X","wings":"1","pattern":"D","legs":"X"},"action":"harvest","summary":"good-harvest","bonus":1.2800000000000014},{"rt":27828.199999999255,"stimulus":"\n                    <p><b>Action: <em>harvest</em></b></p>\n                    <p>This is the bee that you just saw.</p>\n                    <img src=\"bees-with-color/bee-B2DM.svg\" width=\"200\">\n                    <p><span class=\"greenText\"><b>Successful harvest!</b></span><br>Your pay has increased by $0.02. Your bonus pay is now $0.50.</p>\n            ","response":0,"trial_type":"html-button-response","trial_index":40,"time_elapsed":823317,"internal_node_id":"0.0-4.0-1.14","subject_id":"616883b802e3b6d0fb70d603","study_id":"60edd13110225f80f9f3709b","session_id":"6196c1f2be766dda3ab8e5ce","condition":"contingent","relevant_dimensions":["wings","pattern"],"bee_group":{"antennae":"X","wings":"1","pattern":"D","legs":"X"},"bonus":1.2800000000000014},{"rt":11829.300000000745,"stimulus":"bees-with-color/bee-A2DM.svg","response":1,"trial_type":"image-button-response","trial_index":41,"time_elapsed":835147,"internal_node_id":"0.0-4.0-0.15","subject_id":"616883b802e3b6d0fb70d603","study_id":"60edd13110225f80f9f3709b","session_id":"6196c1f2be766dda3ab8e5ce","condition":"contingent","relevant_dimensions":["wings","pattern"],"bee_group":{"antennae":"X","wings":"1","pattern":"D","legs":"X"},"action":"avoid","summary":"bad-avoid","bonus":1.2800000000000014},{"rt":1445,"stimulus":"\n                    <p><b>Action: <em>avoid</em></b></p>\n                    <p>This is the bee that you just saw.</p>\n                    <img src=\"bees-with-color/bee-A2DM.svg\" width=\"200\">\n                    <p><br>Your bonus pay is unchanged, and remains at $0.50.</p>\n            ","response":0,"trial_type":"html-button-response","trial_index":42,"time_elapsed":836593,"internal_node_id":"0.0-4.0-1.15","subject_id":"616883b802e3b6d0fb70d603","study_id":"60edd13110225f80f9f3709b","session_id":"6196c1f2be766dda3ab8e5ce","condition":"contingent","relevant_dimensions":["wings","pattern"],"bee_group":{"antennae":"X","wings":"1","pattern":"D","legs":"X"},"bonus":1.2800000000000014},{"rt":2027,"stimulus":"bees-with-color/bee-B2DM.svg","response":0,"trial_type":"image-button-response","trial_index":43,"time_elapsed":838621,"internal_node_id":"0.0-4.0-0.16","subject_id":"616883b802e3b6d0fb70d603","study_id":"60edd13110225f80f9f3709b","session_id":"6196c1f2be766dda3ab8e5ce","condition":"contingent","relevant_dimensions":["wings","pattern"],"bee_group":{"antennae":"X","wings":"1","pattern":"D","legs":"X"},"action":"harvest","summary":"good-harvest","bonus":1.2800000000000014},{"rt":18199.5,"stimulus":"\n                    <p><b>Action: <em>harvest</em></b></p>\n                    <p>This is the bee that you just saw.</p>\n                    <img src=\"bees-with-color/bee-B2DM.svg\" width=\"200\">\n                    <p><span class=\"greenText\"><b>Successful harvest!</b></span><br>Your pay has increased by $0.02. Your bonus pay is now $0.52.</p>\n            ","response":0,"trial_type":"html-button-response","trial_index":44,"time_elapsed":856822,"internal_node_id":"0.0-4.0-1.16","subject_id":"616883b802e3b6d0fb70d603","study_id":"60edd13110225f80f9f3709b","session_id":"6196c1f2be766dda3ab8e5ce","condition":"contingent","relevant_dimensions":["wings","pattern"],"bee_group":{"antennae":"X","wings":"1","pattern":"D","legs":"X"},"bonus":1.2800000000000014},{"rt":11299.300000000745,"stimulus":"bees-with-color/bee-B1DM.svg","response":1,"trial_type":"image-button-response","trial_index":45,"time_elapsed":868123,"internal_node_id":"0.0-4.0-0.17","subject_id":"616883b802e3b6d0fb70d603","study_id":"60edd13110225f80f9f3709b","session_id":"6196c1f2be766dda3ab8e5ce","condition":"contingent","relevant_dimensions":["wings","pattern"],"bee_group":{"antennae":"X","wings":"1","pattern":"D","legs":"X"},"action":"avoid","summary":"good-avoid","bonus":1.2800000000000014},{"rt":1302.8999999985099,"stimulus":"\n                    <p><b>Action: <em>avoid</em></b></p>\n                    <p>This is the bee that you just saw.</p>\n                    <img src=\"bees-with-color/bee-B1DM.svg\" width=\"200\">\n                    <p><br>Your bonus pay is unchanged, and remains at $0.52.</p>\n            ","response":0,"trial_type":"html-button-response","trial_index":46,"time_elapsed":869427,"internal_node_id":"0.0-4.0-1.17","subject_id":"616883b802e3b6d0fb70d603","study_id":"60edd13110225f80f9f3709b","session_id":"6196c1f2be766dda3ab8e5ce","condition":"contingent","relevant_dimensions":["wings","pattern"],"bee_group":{"antennae":"X","wings":"1","pattern":"D","legs":"X"},"bonus":1.2800000000000014},{"rt":20161.39999999851,"stimulus":"bees-with-color/bee-A2DM.svg","response":0,"trial_type":"image-button-response","trial_index":47,"time_elapsed":889589,"internal_node_id":"0.0-4.0-0.18","subject_id":"616883b802e3b6d0fb70d603","study_id":"60edd13110225f80f9f3709b","session_id":"6196c1f2be766dda3ab8e5ce","condition":"contingent","relevant_dimensions":["wings","pattern"],"bee_group":{"antennae":"X","wings":"1","pattern":"D","legs":"X"},"action":"harvest","summary":"good-harvest","bonus":1.2800000000000014},{"rt":31516.10000000149,"stimulus":"\n                    <p><b>Action: <em>harvest</em></b></p>\n                    <p>This is the bee that you just saw.</p>\n                    <img src=\"bees-with-color/bee-A2DM.svg\" width=\"200\">\n                    <p><span class=\"greenText\"><b>Successful harvest!</b></span><br>Your pay has increased by $0.02. Your bonus pay is now $0.54.</p>\n            ","response":0,"trial_type":"html-button-response","trial_index":48,"time_elapsed":921106,"internal_node_id":"0.0-4.0-1.18","subject_id":"616883b802e3b6d0fb70d603","study_id":"60edd13110225f80f9f3709b","session_id":"6196c1f2be766dda3ab8e5ce","condition":"contingent","relevant_dimensions":["wings","pattern"],"bee_group":{"antennae":"X","wings":"1","pattern":"D","legs":"X"},"bonus":1.2800000000000014},{"rt":10723.300000000745,"stimulus":"bees-with-color/bee-A1DM.svg","response":0,"trial_type":"image-button-response","trial_index":49,"time_elapsed":931830,"internal_node_id":"0.0-4.0-0.19","subject_id":"616883b802e3b6d0fb70d603","study_id":"60edd13110225f80f9f3709b","session_id":"6196c1f2be766dda3ab8e5ce","condition":"contingent","relevant_dimensions":["wings","pattern"],"bee_group":{"antennae":"X","wings":"1","pattern":"D","legs":"X"},"action":"harvest","summary":"bad-harvest","bonus":1.2800000000000014},{"rt":38075.800000000745,"stimulus":"\n                    <p><b>Action: <em>harvest</em></b></p>\n                    <p>This is the bee that you just saw.</p>\n                    <img src=\"bees-with-color/bee-A1DM.svg\" width=\"200\">\n                    <p><span class=\"redText\">Bad choice, the bee was angry.</span><br><b>You have been stung!</b><br>Your pay has been decreased by $0.10. Your bonus pay is now $0.44.</p>\n            ","response":0,"trial_type":"html-button-response","trial_index":50,"time_elapsed":969908,"internal_node_id":"0.0-4.0-1.19","subject_id":"616883b802e3b6d0fb70d603","study_id":"60edd13110225f80f9f3709b","session_id":"6196c1f2be766dda3ab8e5ce","condition":"contingent","relevant_dimensions":["wings","pattern"],"bee_group":{"antennae":"X","wings":"1","pattern":"D","legs":"X"},"bonus":1.2800000000000014},{"rt":12905.300000000745,"stimulus":"bees-with-color/bee-A1SF.svg","response":0,"trial_type":"image-button-response","trial_index":51,"time_elapsed":982815,"internal_node_id":"0.0-4.0-0.20","subject_id":"616883b802e3b6d0fb70d603","study_id":"60edd13110225f80f9f3709b","session_id":"6196c1f2be766dda3ab8e5ce","condition":"contingent","relevant_dimensions":["wings","pattern"],"bee_group":{"antennae":"X","wings":"1","pattern":"D","legs":"X"},"action":"harvest","summary":"good-harvest","bonus":1.2800000000000014},{"rt":11969.199999999255,"stimulus":"\n                    <p><b>Action: <em>harvest</em></b></p>\n                    <p>This is the bee that you just saw.</p>\n                    <img src=\"bees-with-color/bee-A1SF.svg\" width=\"200\">\n                    <p><span class=\"greenText\"><b>Successful harvest!</b></span><br>Your pay has increased by $0.02. Your bonus pay is now $0.46.</p>\n            ","response":0,"trial_type":"html-button-response","trial_index":52,"time_elapsed":994785,"internal_node_id":"0.0-4.0-1.20","subject_id":"616883b802e3b6d0fb70d603","study_id":"60edd13110225f80f9f3709b","session_id":"6196c1f2be766dda3ab8e5ce","condition":"contingent","relevant_dimensions":["wings","pattern"],"bee_group":{"antennae":"X","wings":"1","pattern":"D","legs":"X"},"bonus":1.2800000000000014},{"rt":20317.699999999255,"stimulus":"bees-with-color/bee-A2SF.svg","response":0,"trial_type":"image-button-response","trial_index":53,"time_elapsed":1015103,"internal_node_id":"0.0-4.0-0.21","subject_id":"616883b802e3b6d0fb70d603","study_id":"60edd13110225f80f9f3709b","session_id":"6196c1f2be766dda3ab8e5ce","condition":"contingent","relevant_dimensions":["wings","pattern"],"bee_group":{"antennae":"X","wings":"1","pattern":"D","legs":"X"},"action":"harvest","summary":"good-harvest","bonus":1.2800000000000014},{"rt":16037.599999997765,"stimulus":"\n                    <p><b>Action: <em>harvest</em></b></p>\n                    <p>This is the bee that you just saw.</p>\n                    <img src=\"bees-with-color/bee-A2SF.svg\" width=\"200\">\n                    <p><span class=\"greenText\"><b>Successful harvest!</b></span><br>Your pay has increased by $0.02. Your bonus pay is now $0.48.</p>\n            ","response":0,"trial_type":"html-button-response","trial_index":54,"time_elapsed":1031142,"internal_node_id":"0.0-4.0-1.21","subject_id":"616883b802e3b6d0fb70d603","study_id":"60edd13110225f80f9f3709b","session_id":"6196c1f2be766dda3ab8e5ce","condition":"contingent","relevant_dimensions":["wings","pattern"],"bee_group":{"antennae":"X","wings":"1","pattern":"D","legs":"X"},"bonus":1.2800000000000014},{"rt":52906.300000000745,"stimulus":"bees-with-color/bee-A2DF.svg","response":1,"trial_type":"image-button-response","trial_index":55,"time_elapsed":1084050,"internal_node_id":"0.0-4.0-0.22","subject_id":"616883b802e3b6d0fb70d603","study_id":"60edd13110225f80f9f3709b","session_id":"6196c1f2be766dda3ab8e5ce","condition":"contingent","relevant_dimensions":["wings","pattern"],"bee_group":{"antennae":"X","wings":"1","pattern":"D","legs":"X"},"action":"avoid","summary":"bad-avoid","bonus":1.2800000000000014},{"rt":2606.900000002235,"stimulus":"\n                    <p><b>Action: <em>avoid</em></b></p>\n                    <p>This is the bee that you just saw.</p>\n                    <img src=\"bees-with-color/bee-A2DF.svg\" width=\"200\">\n                    <p><br>Your bonus pay is unchanged, and remains at $0.48.</p>\n            ","response":0,"trial_type":"html-button-response","trial_index":56,"time_elapsed":1086658,"internal_node_id":"0.0-4.0-1.22","subject_id":"616883b802e3b6d0fb70d603","study_id":"60edd13110225f80f9f3709b","session_id":"6196c1f2be766dda3ab8e5ce","condition":"contingent","relevant_dimensions":["wings","pattern"],"bee_group":{"antennae":"X","wings":"1","pattern":"D","legs":"X"},"bonus":1.2800000000000014},{"rt":16047.10000000149,"stimulus":"bees-with-color/bee-B2DF.svg","response":0,"trial_type":"image-button-response","trial_index":57,"time_elapsed":1102707,"internal_node_id":"0.0-4.0-0.23","subject_id":"616883b802e3b6d0fb70d603","study_id":"60edd13110225f80f9f3709b","session_id":"6196c1f2be766dda3ab8e5ce","condition":"contingent","relevant_dimensions":["wings","pattern"],"bee_group":{"antennae":"X","wings":"1","pattern":"D","legs":"X"},"action":"harvest","summary":"good-harvest","bonus":1.2800000000000014},{"rt":5555.099999997765,"stimulus":"\n                    <p><b>Action: <em>harvest</em></b></p>\n                    <p>This is the bee that you just saw.</p>\n                    <img src=\"bees-with-color/bee-B2DF.svg\" width=\"200\">\n                    <p><span class=\"greenText\"><b>Successful harvest!</b></span><br>Your pay has increased by $0.02. Your bonus pay is now $0.50.</p>\n            ","response":0,"trial_type":"html-button-response","trial_index":58,"time_elapsed":1108263,"internal_node_id":"0.0-4.0-1.23","subject_id":"616883b802e3b6d0fb70d603","study_id":"60edd13110225f80f9f3709b","session_id":"6196c1f2be766dda3ab8e5ce","condition":"contingent","relevant_dimensions":["wings","pattern"],"bee_group":{"antennae":"X","wings":"1","pattern":"D","legs":"X"},"bonus":1.2800000000000014},{"rt":45828.5,"stimulus":"bees-with-color/bee-A2SM.svg","response":0,"trial_type":"image-button-response","trial_index":59,"time_elapsed":1154092,"internal_node_id":"0.0-4.0-0.24","subject_id":"616883b802e3b6d0fb70d603","study_id":"60edd13110225f80f9f3709b","session_id":"6196c1f2be766dda3ab8e5ce","condition":"contingent","relevant_dimensions":["wings","pattern"],"bee_group":{"antennae":"X","wings":"1","pattern":"D","legs":"X"},"action":"harvest","summary":"good-harvest","bonus":1.2800000000000014},{"rt":9127.400000002235,"stimulus":"\n                    <p><b>Action: <em>harvest</em></b></p>\n                    <p>This is the bee that you just saw.</p>\n                    <img src=\"bees-with-color/bee-A2SM.svg\" width=\"200\">\n                    <p><span class=\"greenText\"><b>Successful harvest!</b></span><br>Your pay has increased by $0.02. Your bonus pay is now $0.52.</p>\n            ","response":0,"trial_type":"html-button-response","trial_index":60,"time_elapsed":1163220,"internal_node_id":"0.0-4.0-1.24","subject_id":"616883b802e3b6d0fb70d603","study_id":"60edd13110225f80f9f3709b","session_id":"6196c1f2be766dda3ab8e5ce","condition":"contingent","relevant_dimensions":["wings","pattern"],"bee_group":{"antennae":"X","wings":"1","pattern":"D","legs":"X"},"bonus":1.2800000000000014},{"rt":22035.39999999851,"stimulus":"bees-with-color/bee-B1SF.svg","response":0,"trial_type":"image-button-response","trial_index":61,"time_elapsed":1185257,"internal_node_id":"0.0-4.0-0.25","subject_id":"616883b802e3b6d0fb70d603","study_id":"60edd13110225f80f9f3709b","session_id":"6196c1f2be766dda3ab8e5ce","condition":"contingent","relevant_dimensions":["wings","pattern"],"bee_group":{"antennae":"X","wings":"1","pattern":"D","legs":"X"},"action":"harvest","summary":"good-harvest","bonus":1.2800000000000014},{"rt":8741.20000000298,"stimulus":"\n                    <p><b>Action: <em>harvest</em></b></p>\n                    <p>This is the bee that you just saw.</p>\n                    <img src=\"bees-with-color/bee-B1SF.svg\" width=\"200\">\n                    <p><span class=\"greenText\"><b>Successful harvest!</b></span><br>Your pay has increased by $0.02. Your bonus pay is now $0.54.</p>\n            ","response":0,"trial_type":"html-button-response","trial_index":62,"time_elapsed":1193999,"internal_node_id":"0.0-4.0-1.25","subject_id":"616883b802e3b6d0fb70d603","study_id":"60edd13110225f80f9f3709b","session_id":"6196c1f2be766dda3ab8e5ce","condition":"contingent","relevant_dimensions":["wings","pattern"],"bee_group":{"antennae":"X","wings":"1","pattern":"D","legs":"X"},"bonus":1.2800000000000014},{"rt":22563.5,"stimulus":"bees-with-color/bee-B2SM.svg","response":0,"trial_type":"image-button-response","trial_index":63,"time_elapsed":1216564,"internal_node_id":"0.0-4.0-0.26","subject_id":"616883b802e3b6d0fb70d603","study_id":"60edd13110225f80f9f3709b","session_id":"6196c1f2be766dda3ab8e5ce","condition":"contingent","relevant_dimensions":["wings","pattern"],"bee_group":{"antennae":"X","wings":"1","pattern":"D","legs":"X"},"action":"harvest","summary":"good-harvest","bonus":1.2800000000000014},{"rt":1109.1000000014901,"stimulus":"\n                    <p><b>Action: <em>harvest</em></b></p>\n                    <p>This is the bee that you just saw.</p>\n                    <img src=\"bees-with-color/bee-B2SM.svg\" width=\"200\">\n                    <p><span class=\"greenText\"><b>Successful harvest!</b></span><br>Your pay has increased by $0.02. Your bonus pay is now $0.56.</p>\n            ","response":0,"trial_type":"html-button-response","trial_index":64,"time_elapsed":1217674,"internal_node_id":"0.0-4.0-1.26","subject_id":"616883b802e3b6d0fb70d603","study_id":"60edd13110225f80f9f3709b","session_id":"6196c1f2be766dda3ab8e5ce","condition":"contingent","relevant_dimensions":["wings","pattern"],"bee_group":{"antennae":"X","wings":"1","pattern":"D","legs":"X"},"bonus":1.2800000000000014},{"rt":39016,"stimulus":"bees-with-color/bee-B2SF.svg","response":0,"trial_type":"image-button-response","trial_index":65,"time_elapsed":1256691,"internal_node_id":"0.0-4.0-0.27","subject_id":"616883b802e3b6d0fb70d603","study_id":"60edd13110225f80f9f3709b","session_id":"6196c1f2be766dda3ab8e5ce","condition":"contingent","relevant_dimensions":["wings","pattern"],"bee_group":{"antennae":"X","wings":"1","pattern":"D","legs":"X"},"action":"harvest","summary":"good-harvest","bonus":1.2800000000000014},{"rt":1630.699999999255,"stimulus":"\n                    <p><b>Action: <em>harvest</em></b></p>\n                    <p>This is the bee that you just saw.</p>\n                    <img src=\"bees-with-color/bee-B2SF.svg\" width=\"200\">\n                    <p><span class=\"greenText\"><b>Successful harvest!</b></span><br>Your pay has increased by $0.02. Your bonus pay is now $0.58.</p>\n            ","response":0,"trial_type":"html-button-response","trial_index":66,"time_elapsed":1258323,"internal_node_id":"0.0-4.0-1.27","subject_id":"616883b802e3b6d0fb70d603","study_id":"60edd13110225f80f9f3709b","session_id":"6196c1f2be766dda3ab8e5ce","condition":"contingent","relevant_dimensions":["wings","pattern"],"bee_group":{"antennae":"X","wings":"1","pattern":"D","legs":"X"},"bonus":1.2800000000000014},{"rt":20809.699999999255,"stimulus":"bees-with-color/bee-B1SM.svg","response":0,"trial_type":"image-button-response","trial_index":67,"time_elapsed":1279134,"internal_node_id":"0.0-4.0-0.28","subject_id":"616883b802e3b6d0fb70d603","study_id":"60edd13110225f80f9f3709b","session_id":"6196c1f2be766dda3ab8e5ce","condition":"contingent","relevant_dimensions":["wings","pattern"],"bee_group":{"antennae":"X","wings":"1","pattern":"D","legs":"X"},"action":"harvest","summary":"good-harvest","bonus":1.2800000000000014},{"rt":1236.7000000029802,"stimulus":"\n                    <p><b>Action: <em>harvest</em></b></p>\n                    <p>This is the bee that you just saw.</p>\n                    <img src=\"bees-with-color/bee-B1SM.svg\" width=\"200\">\n                    <p><span class=\"greenText\"><b>Successful harvest!</b></span><br>Your pay has increased by $0.02. Your bonus pay is now $0.60.</p>\n            ","response":0,"trial_type":"html-button-response","trial_index":68,"time_elapsed":1280372,"internal_node_id":"0.0-4.0-1.28","subject_id":"616883b802e3b6d0fb70d603","study_id":"60edd13110225f80f9f3709b","session_id":"6196c1f2be766dda3ab8e5ce","condition":"contingent","relevant_dimensions":["wings","pattern"],"bee_group":{"antennae":"X","wings":"1","pattern":"D","legs":"X"},"bonus":1.2800000000000014},{"rt":47812.300000000745,"stimulus":"bees-with-color/bee-A1SM.svg","response":0,"trial_type":"image-button-response","trial_index":69,"time_elapsed":1328186,"internal_node_id":"0.0-4.0-0.29","subject_id":"616883b802e3b6d0fb70d603","study_id":"60edd13110225f80f9f3709b","session_id":"6196c1f2be766dda3ab8e5ce","condition":"contingent","relevant_dimensions":["wings","pattern"],"bee_group":{"antennae":"X","wings":"1","pattern":"D","legs":"X"},"action":"harvest","summary":"good-harvest","bonus":1.2800000000000014},{"rt":2849.199999999255,"stimulus":"\n                    <p><b>Action: <em>harvest</em></b></p>\n                    <p>This is the bee that you just saw.</p>\n                    <img src=\"bees-with-color/bee-A1SM.svg\" width=\"200\">\n                    <p><span class=\"greenText\"><b>Successful harvest!</b></span><br>Your pay has increased by $0.02. Your bonus pay is now $0.62.</p>\n            ","response":0,"trial_type":"html-button-response","trial_index":70,"time_elapsed":1331036,"internal_node_id":"0.0-4.0-1.29","subject_id":"616883b802e3b6d0fb70d603","study_id":"60edd13110225f80f9f3709b","session_id":"6196c1f2be766dda3ab8e5ce","condition":"contingent","relevant_dimensions":["wings","pattern"],"bee_group":{"antennae":"X","wings":"1","pattern":"D","legs":"X"},"bonus":1.2800000000000014},{"rt":30872,"stimulus":"bees-with-color/bee-A1DF.svg","response":0,"trial_type":"image-button-response","trial_index":71,"time_elapsed":1361909,"internal_node_id":"0.0-4.0-0.30","subject_id":"616883b802e3b6d0fb70d603","study_id":"60edd13110225f80f9f3709b","session_id":"6196c1f2be766dda3ab8e5ce","condition":"contingent","relevant_dimensions":["wings","pattern"],"bee_group":{"antennae":"X","wings":"1","pattern":"D","legs":"X"},"action":"harvest","summary":"bad-harvest","bonus":1.2800000000000014},{"rt":10115,"stimulus":"\n                    <p><b>Action: <em>harvest</em></b></p>\n                    <p>This is the bee that you just saw.</p>\n                    <img src=\"bees-with-color/bee-A1DF.svg\" width=\"200\">\n                    <p><span class=\"redText\">Bad choice, the bee was angry.</span><br><b>You have been stung!</b><br>Your pay has been decreased by $0.10. Your bonus pay is now $0.52.</p>\n            ","response":0,"trial_type":"html-button-response","trial_index":72,"time_elapsed":1372025,"internal_node_id":"0.0-4.0-1.30","subject_id":"616883b802e3b6d0fb70d603","study_id":"60edd13110225f80f9f3709b","session_id":"6196c1f2be766dda3ab8e5ce","condition":"contingent","relevant_dimensions":["wings","pattern"],"bee_group":{"antennae":"X","wings":"1","pattern":"D","legs":"X"},"bonus":1.2800000000000014},{"rt":123434.89999999851,"stimulus":"bees-with-color/bee-B1DF.svg","response":1,"trial_type":"image-button-response","trial_index":73,"time_elapsed":1495462,"internal_node_id":"0.0-4.0-0.31","subject_id":"616883b802e3b6d0fb70d603","study_id":"60edd13110225f80f9f3709b","session_id":"6196c1f2be766dda3ab8e5ce","condition":"contingent","relevant_dimensions":["wings","pattern"],"bee_group":{"antennae":"X","wings":"1","pattern":"D","legs":"X"},"action":"avoid","summary":"good-avoid","bonus":1.2800000000000014},{"rt":1344.6000000014901,"stimulus":"\n                    <p><b>Action: <em>avoid</em></b></p>\n                    <p>This is the bee that you just saw.</p>\n                    <img src=\"bees-with-color/bee-B1DF.svg\" width=\"200\">\n                    <p><br>Your bonus pay is unchanged, and remains at $0.52.</p>\n            ","response":0,"trial_type":"html-button-response","trial_index":74,"time_elapsed":1496808,"internal_node_id":"0.0-4.0-1.31","subject_id":"616883b802e3b6d0fb70d603","study_id":"60edd13110225f80f9f3709b","session_id":"6196c1f2be766dda3ab8e5ce","condition":"contingent","relevant_dimensions":["wings","pattern"],"bee_group":{"antennae":"X","wings":"1","pattern":"D","legs":"X"},"bonus":1.2800000000000014},{"rt":26275.599999997765,"stimulus":"bees-with-color/bee-A1DF.svg","response":1,"trial_type":"image-button-response","trial_index":75,"time_elapsed":1523085,"internal_node_id":"0.0-4.0-0.32","subject_id":"616883b802e3b6d0fb70d603","study_id":"60edd13110225f80f9f3709b","session_id":"6196c1f2be766dda3ab8e5ce","condition":"contingent","relevant_dimensions":["wings","pattern"],"bee_group":{"antennae":"X","wings":"1","pattern":"D","legs":"X"},"action":"avoid","summary":"good-avoid","bonus":1.2800000000000014},{"rt":4083,"stimulus":"\n                    <p><b>Action: <em>avoid</em></b></p>\n                    <p>This is the bee that you just saw.</p>\n                    <img src=\"bees-with-color/bee-A1DF.svg\" width=\"200\">\n                    <p><br>Your bonus pay is unchanged, and remains at $0.52.</p>\n            ","response":0,"trial_type":"html-button-response","trial_index":76,"time_elapsed":1527169,"internal_node_id":"0.0-4.0-1.32","subject_id":"616883b802e3b6d0fb70d603","study_id":"60edd13110225f80f9f3709b","session_id":"6196c1f2be766dda3ab8e5ce","condition":"contingent","relevant_dimensions":["wings","pattern"],"bee_group":{"antennae":"X","wings":"1","pattern":"D","legs":"X"},"bonus":1.2800000000000014},{"rt":3383,"stimulus":"bees-with-color/bee-B1DM.svg","response":0,"trial_type":"image-button-response","trial_index":77,"time_elapsed":1530554,"internal_node_id":"0.0-4.0-0.33","subject_id":"616883b802e3b6d0fb70d603","study_id":"60edd13110225f80f9f3709b","session_id":"6196c1f2be766dda3ab8e5ce","condition":"contingent","relevant_dimensions":["wings","pattern"],"bee_group":{"antennae":"X","wings":"1","pattern":"D","legs":"X"},"action":"harvest","summary":"bad-harvest","bonus":1.2800000000000014},{"rt":48004.300000000745,"stimulus":"\n                    <p><b>Action: <em>harvest</em></b></p>\n                    <p>This is the bee that you just saw.</p>\n                    <img src=\"bees-with-color/bee-B1DM.svg\" width=\"200\">\n                    <p><span class=\"redText\">Bad choice, the bee was angry.</span><br><b>You have been stung!</b><br>Your pay has been decreased by $0.10. Your bonus pay is now $0.42.</p>\n            ","response":0,"trial_type":"html-button-response","trial_index":78,"time_elapsed":1578558,"internal_node_id":"0.0-4.0-1.33","subject_id":"616883b802e3b6d0fb70d603","study_id":"60edd13110225f80f9f3709b","session_id":"6196c1f2be766dda3ab8e5ce","condition":"contingent","relevant_dimensions":["wings","pattern"],"bee_group":{"antennae":"X","wings":"1","pattern":"D","legs":"X"},"bonus":1.2800000000000014},{"rt":5822.699999999255,"stimulus":"bees-with-color/bee-A2SM.svg","response":0,"trial_type":"image-button-response","trial_index":79,"time_elapsed":1584383,"internal_node_id":"0.0-4.0-0.34","subject_id":"616883b802e3b6d0fb70d603","study_id":"60edd13110225f80f9f3709b","session_id":"6196c1f2be766dda3ab8e5ce","condition":"contingent","relevant_dimensions":["wings","pattern"],"bee_group":{"antennae":"X","wings":"1","pattern":"D","legs":"X"},"action":"harvest","summary":"good-harvest","bonus":1.2800000000000014},{"rt":844.6999999992549,"stimulus":"\n                    <p><b>Action: <em>harvest</em></b></p>\n                    <p>This is the bee that you just saw.</p>\n                    <img src=\"bees-with-color/bee-A2SM.svg\" width=\"200\">\n                    <p><span class=\"greenText\"><b>Successful harvest!</b></span><br>Your pay has increased by $0.02. Your bonus pay is now $0.44.</p>\n            ","response":0,"trial_type":"html-button-response","trial_index":80,"time_elapsed":1585229,"internal_node_id":"0.0-4.0-1.34","subject_id":"616883b802e3b6d0fb70d603","study_id":"60edd13110225f80f9f3709b","session_id":"6196c1f2be766dda3ab8e5ce","condition":"contingent","relevant_dimensions":["wings","pattern"],"bee_group":{"antennae":"X","wings":"1","pattern":"D","legs":"X"},"bonus":1.2800000000000014},{"rt":21214.199999999255,"stimulus":"bees-with-color/bee-B1SF.svg","response":0,"trial_type":"image-button-response","trial_index":81,"time_elapsed":1606444,"internal_node_id":"0.0-4.0-0.35","subject_id":"616883b802e3b6d0fb70d603","study_id":"60edd13110225f80f9f3709b","session_id":"6196c1f2be766dda3ab8e5ce","condition":"contingent","relevant_dimensions":["wings","pattern"],"bee_group":{"antennae":"X","wings":"1","pattern":"D","legs":"X"},"action":"harvest","summary":"good-harvest","bonus":1.2800000000000014},{"rt":4400.5,"stimulus":"\n                    <p><b>Action: <em>harvest</em></b></p>\n                    <p>This is the bee that you just saw.</p>\n                    <img src=\"bees-with-color/bee-B1SF.svg\" width=\"200\">\n                    <p><span class=\"greenText\"><b>Successful harvest!</b></span><br>Your pay has increased by $0.02. Your bonus pay is now $0.46.</p>\n            ","response":0,"trial_type":"html-button-response","trial_index":82,"time_elapsed":1610846,"internal_node_id":"0.0-4.0-1.35","subject_id":"616883b802e3b6d0fb70d603","study_id":"60edd13110225f80f9f3709b","session_id":"6196c1f2be766dda3ab8e5ce","condition":"contingent","relevant_dimensions":["wings","pattern"],"bee_group":{"antennae":"X","wings":"1","pattern":"D","legs":"X"},"bonus":1.2800000000000014},{"rt":1208.3000000044703,"stimulus":"bees-with-color/bee-A2DM.svg","response":0,"trial_type":"image-button-response","trial_index":83,"time_elapsed":1612056,"internal_node_id":"0.0-4.0-0.36","subject_id":"616883b802e3b6d0fb70d603","study_id":"60edd13110225f80f9f3709b","session_id":"6196c1f2be766dda3ab8e5ce","condition":"contingent","relevant_dimensions":["wings","pattern"],"bee_group":{"antennae":"X","wings":"1","pattern":"D","legs":"X"},"action":"harvest","summary":"good-harvest","bonus":1.2800000000000014},{"rt":6901.20000000298,"stimulus":"\n                    <p><b>Action: <em>harvest</em></b></p>\n                    <p>This is the bee that you just saw.</p>\n                    <img src=\"bees-with-color/bee-A2DM.svg\" width=\"200\">\n                    <p><span class=\"greenText\"><b>Successful harvest!</b></span><br>Your pay has increased by $0.02. Your bonus pay is now $0.48.</p>\n            ","response":0,"trial_type":"html-button-response","trial_index":84,"time_elapsed":1618958,"internal_node_id":"0.0-4.0-1.36","subject_id":"616883b802e3b6d0fb70d603","study_id":"60edd13110225f80f9f3709b","session_id":"6196c1f2be766dda3ab8e5ce","condition":"contingent","relevant_dimensions":["wings","pattern"],"bee_group":{"antennae":"X","wings":"1","pattern":"D","legs":"X"},"bonus":1.2800000000000014},{"rt":31261.60000000149,"stimulus":"bees-with-color/bee-A1SM.svg","response":0,"trial_type":"image-button-response","trial_index":85,"time_elapsed":1650221,"internal_node_id":"0.0-4.0-0.37","subject_id":"616883b802e3b6d0fb70d603","study_id":"60edd13110225f80f9f3709b","session_id":"6196c1f2be766dda3ab8e5ce","condition":"contingent","relevant_dimensions":["wings","pattern"],"bee_group":{"antennae":"X","wings":"1","pattern":"D","legs":"X"},"action":"harvest","summary":"good-harvest","bonus":1.2800000000000014},{"rt":1236.8999999985099,"stimulus":"\n                    <p><b>Action: <em>harvest</em></b></p>\n                    <p>This is the bee that you just saw.</p>\n                    <img src=\"bees-with-color/bee-A1SM.svg\" width=\"200\">\n                    <p><span class=\"greenText\"><b>Successful harvest!</b></span><br>Your pay has increased by $0.02. Your bonus pay is now $0.50.</p>\n            ","response":0,"trial_type":"html-button-response","trial_index":86,"time_elapsed":1651459,"internal_node_id":"0.0-4.0-1.37","subject_id":"616883b802e3b6d0fb70d603","study_id":"60edd13110225f80f9f3709b","session_id":"6196c1f2be766dda3ab8e5ce","condition":"contingent","relevant_dimensions":["wings","pattern"],"bee_group":{"antennae":"X","wings":"1","pattern":"D","legs":"X"},"bonus":1.2800000000000014},{"rt":44756.20000000298,"stimulus":"bees-with-color/bee-A1SF.svg","response":0,"trial_type":"image-button-response","trial_index":87,"time_elapsed":1696217,"internal_node_id":"0.0-4.0-0.38","subject_id":"616883b802e3b6d0fb70d603","study_id":"60edd13110225f80f9f3709b","session_id":"6196c1f2be766dda3ab8e5ce","condition":"contingent","relevant_dimensions":["wings","pattern"],"bee_group":{"antennae":"X","wings":"1","pattern":"D","legs":"X"},"action":"harvest","summary":"good-harvest","bonus":1.2800000000000014},{"rt":676.6999999955297,"stimulus":"\n                    <p><b>Action: <em>harvest</em></b></p>\n                    <p>This is the bee that you just saw.</p>\n                    <img src=\"bees-with-color/bee-A1SF.svg\" width=\"200\">\n                    <p><span class=\"greenText\"><b>Successful harvest!</b></span><br>Your pay has increased by $0.02. Your bonus pay is now $0.52.</p>\n            ","response":0,"trial_type":"html-button-response","trial_index":88,"time_elapsed":1696895,"internal_node_id":"0.0-4.0-1.38","subject_id":"616883b802e3b6d0fb70d603","study_id":"60edd13110225f80f9f3709b","session_id":"6196c1f2be766dda3ab8e5ce","condition":"contingent","relevant_dimensions":["wings","pattern"],"bee_group":{"antennae":"X","wings":"1","pattern":"D","legs":"X"},"bonus":1.2800000000000014},{"rt":35786,"stimulus":"bees-with-color/bee-B1SM.svg","response":0,"trial_type":"image-button-response","trial_index":89,"time_elapsed":1732682,"internal_node_id":"0.0-4.0-0.39","subject_id":"616883b802e3b6d0fb70d603","study_id":"60edd13110225f80f9f3709b","session_id":"6196c1f2be766dda3ab8e5ce","condition":"contingent","relevant_dimensions":["wings","pattern"],"bee_group":{"antennae":"X","wings":"1","pattern":"D","legs":"X"},"action":"harvest","summary":"good-harvest","bonus":1.2800000000000014},{"rt":19377.30000000447,"stimulus":"\n                    <p><b>Action: <em>harvest</em></b></p>\n                    <p>This is the bee that you just saw.</p>\n                    <img src=\"bees-with-color/bee-B1SM.svg\" width=\"200\">\n                    <p><span class=\"greenText\"><b>Successful harvest!</b></span><br>Your pay has increased by $0.02. Your bonus pay is now $0.54.</p>\n            ","response":0,"trial_type":"html-button-response","trial_index":90,"time_elapsed":1752061,"internal_node_id":"0.0-4.0-1.39","subject_id":"616883b802e3b6d0fb70d603","study_id":"60edd13110225f80f9f3709b","session_id":"6196c1f2be766dda3ab8e5ce","condition":"contingent","relevant_dimensions":["wings","pattern"],"bee_group":{"antennae":"X","wings":"1","pattern":"D","legs":"X"},"bonus":1.2800000000000014},{"rt":8183,"stimulus":"bees-with-color/bee-A2DF.svg","response":0,"trial_type":"image-button-response","trial_index":91,"time_elapsed":1760245,"internal_node_id":"0.0-4.0-0.40","subject_id":"616883b802e3b6d0fb70d603","study_id":"60edd13110225f80f9f3709b","session_id":"6196c1f2be766dda3ab8e5ce","condition":"contingent","relevant_dimensions":["wings","pattern"],"bee_group":{"antennae":"X","wings":"1","pattern":"D","legs":"X"},"action":"harvest","summary":"good-harvest","bonus":1.2800000000000014},{"rt":1144.6999999955297,"stimulus":"\n                    <p><b>Action: <em>harvest</em></b></p>\n                    <p>This is the bee that you just saw.</p>\n                    <img src=\"bees-with-color/bee-A2DF.svg\" width=\"200\">\n                    <p><span class=\"greenText\"><b>Successful harvest!</b></span><br>Your pay has increased by $0.02. Your bonus pay is now $0.56.</p>\n            ","response":0,"trial_type":"html-button-response","trial_index":92,"time_elapsed":1761391,"internal_node_id":"0.0-4.0-1.40","subject_id":"616883b802e3b6d0fb70d603","study_id":"60edd13110225f80f9f3709b","session_id":"6196c1f2be766dda3ab8e5ce","condition":"contingent","relevant_dimensions":["wings","pattern"],"bee_group":{"antennae":"X","wings":"1","pattern":"D","legs":"X"},"bonus":1.2800000000000014},{"rt":844.7999999970198,"stimulus":"bees-with-color/bee-A2SF.svg","response":0,"trial_type":"image-button-response","trial_index":93,"time_elapsed":1762237,"internal_node_id":"0.0-4.0-0.41","subject_id":"616883b802e3b6d0fb70d603","study_id":"60edd13110225f80f9f3709b","session_id":"6196c1f2be766dda3ab8e5ce","condition":"contingent","relevant_dimensions":["wings","pattern"],"bee_group":{"antennae":"X","wings":"1","pattern":"D","legs":"X"},"action":"harvest","summary":"good-harvest","bonus":1.2800000000000014},{"rt":797,"stimulus":"\n                    <p><b>Action: <em>harvest</em></b></p>\n                    <p>This is the bee that you just saw.</p>\n                    <img src=\"bees-with-color/bee-A2SF.svg\" width=\"200\">\n                    <p><span class=\"greenText\"><b>Successful harvest!</b></span><br>Your pay has increased by $0.02. Your bonus pay is now $0.58.</p>\n            ","response":0,"trial_type":"html-button-response","trial_index":94,"time_elapsed":1763035,"internal_node_id":"0.0-4.0-1.41","subject_id":"616883b802e3b6d0fb70d603","study_id":"60edd13110225f80f9f3709b","session_id":"6196c1f2be766dda3ab8e5ce","condition":"contingent","relevant_dimensions":["wings","pattern"],"bee_group":{"antennae":"X","wings":"1","pattern":"D","legs":"X"},"bonus":1.2800000000000014},{"rt":31966.10000000149,"stimulus":"bees-with-color/bee-B1DF.svg","response":0,"trial_type":"image-button-response","trial_index":95,"time_elapsed":1795002,"internal_node_id":"0.0-4.0-0.42","subject_id":"616883b802e3b6d0fb70d603","study_id":"60edd13110225f80f9f3709b","session_id":"6196c1f2be766dda3ab8e5ce","condition":"contingent","relevant_dimensions":["wings","pattern"],"bee_group":{"antennae":"X","wings":"1","pattern":"D","legs":"X"},"action":"harvest","summary":"bad-harvest","bonus":1.2800000000000014},{"rt":6639.0999999940395,"stimulus":"\n                    <p><b>Action: <em>harvest</em></b></p>\n                    <p>This is the bee that you just saw.</p>\n                    <img src=\"bees-with-color/bee-B1DF.svg\" width=\"200\">\n                    <p><span class=\"redText\">Bad choice, the bee was angry.</span><br><b>You have been stung!</b><br>Your pay has been decreased by $0.10. Your bonus pay is now $0.48.</p>\n            ","response":0,"trial_type":"html-button-response","trial_index":96,"time_elapsed":1801642,"internal_node_id":"0.0-4.0-1.42","subject_id":"616883b802e3b6d0fb70d603","study_id":"60edd13110225f80f9f3709b","session_id":"6196c1f2be766dda3ab8e5ce","condition":"contingent","relevant_dimensions":["wings","pattern"],"bee_group":{"antennae":"X","wings":"1","pattern":"D","legs":"X"},"bonus":1.2800000000000014},{"rt":3690.39999999851,"stimulus":"bees-with-color/bee-B2SF.svg","response":0,"trial_type":"image-button-response","trial_index":97,"time_elapsed":1805335,"internal_node_id":"0.0-4.0-0.43","subject_id":"616883b802e3b6d0fb70d603","study_id":"60edd13110225f80f9f3709b","session_id":"6196c1f2be766dda3ab8e5ce","condition":"contingent","relevant_dimensions":["wings","pattern"],"bee_group":{"antennae":"X","wings":"1","pattern":"D","legs":"X"},"action":"harvest","summary":"good-harvest","bonus":1.2800000000000014},{"rt":976.6000000014901,"stimulus":"\n                    <p><b>Action: <em>harvest</em></b></p>\n                    <p>This is the bee that you just saw.</p>\n                    <img src=\"bees-with-color/bee-B2SF.svg\" width=\"200\">\n                    <p><span class=\"greenText\"><b>Successful harvest!</b></span><br>Your pay has increased by $0.02. Your bonus pay is now $0.50.</p>\n            ","response":0,"trial_type":"html-button-response","trial_index":98,"time_elapsed":1806313,"internal_node_id":"0.0-4.0-1.43","subject_id":"616883b802e3b6d0fb70d603","study_id":"60edd13110225f80f9f3709b","session_id":"6196c1f2be766dda3ab8e5ce","condition":"contingent","relevant_dimensions":["wings","pattern"],"bee_group":{"antennae":"X","wings":"1","pattern":"D","legs":"X"},"bonus":1.2800000000000014},{"rt":840.3999999985099,"stimulus":"bees-with-color/bee-B2DM.svg","response":0,"trial_type":"image-button-response","trial_index":99,"time_elapsed":1807154,"internal_node_id":"0.0-4.0-0.44","subject_id":"616883b802e3b6d0fb70d603","study_id":"60edd13110225f80f9f3709b","session_id":"6196c1f2be766dda3ab8e5ce","condition":"contingent","relevant_dimensions":["wings","pattern"],"bee_group":{"antennae":"X","wings":"1","pattern":"D","legs":"X"},"action":"harvest","summary":"good-harvest","bonus":1.2800000000000014},{"rt":636.8999999985099,"stimulus":"\n                    <p><b>Action: <em>harvest</em></b></p>\n                    <p>This is the bee that you just saw.</p>\n                    <img src=\"bees-with-color/bee-B2DM.svg\" width=\"200\">\n                    <p><span class=\"greenText\"><b>Successful harvest!</b></span><br>Your pay has increased by $0.02. Your bonus pay is now $0.52.</p>\n            ","response":0,"trial_type":"html-button-response","trial_index":100,"time_elapsed":1807793,"internal_node_id":"0.0-4.0-1.44","subject_id":"616883b802e3b6d0fb70d603","study_id":"60edd13110225f80f9f3709b","session_id":"6196c1f2be766dda3ab8e5ce","condition":"contingent","relevant_dimensions":["wings","pattern"],"bee_group":{"antennae":"X","wings":"1","pattern":"D","legs":"X"},"bonus":1.2800000000000014},{"rt":908.7999999970198,"stimulus":"bees-with-color/bee-B2SM.svg","response":0,"trial_type":"image-button-response","trial_index":101,"time_elapsed":1808703,"internal_node_id":"0.0-4.0-0.45","subject_id":"616883b802e3b6d0fb70d603","study_id":"60edd13110225f80f9f3709b","session_id":"6196c1f2be766dda3ab8e5ce","condition":"contingent","relevant_dimensions":["wings","pattern"],"bee_group":{"antennae":"X","wings":"1","pattern":"D","legs":"X"},"action":"harvest","summary":"good-harvest","bonus":1.2800000000000014},{"rt":566.8999999985099,"stimulus":"\n                    <p><b>Action: <em>harvest</em></b></p>\n                    <p>This is the bee that you just saw.</p>\n                    <img src=\"bees-with-color/bee-B2SM.svg\" width=\"200\">\n                    <p><span class=\"greenText\"><b>Successful harvest!</b></span><br>Your pay has increased by $0.02. Your bonus pay is now $0.54.</p>\n            ","response":0,"trial_type":"html-button-response","trial_index":102,"time_elapsed":1809271,"internal_node_id":"0.0-4.0-1.45","subject_id":"616883b802e3b6d0fb70d603","study_id":"60edd13110225f80f9f3709b","session_id":"6196c1f2be766dda3ab8e5ce","condition":"contingent","relevant_dimensions":["wings","pattern"],"bee_group":{"antennae":"X","wings":"1","pattern":"D","legs":"X"},"bonus":1.2800000000000014},{"rt":788.7999999970198,"stimulus":"bees-with-color/bee-B2DF.svg","response":0,"trial_type":"image-button-response","trial_index":103,"time_elapsed":1810061,"internal_node_id":"0.0-4.0-0.46","subject_id":"616883b802e3b6d0fb70d603","study_id":"60edd13110225f80f9f3709b","session_id":"6196c1f2be766dda3ab8e5ce","condition":"contingent","relevant_dimensions":["wings","pattern"],"bee_group":{"antennae":"X","wings":"1","pattern":"D","legs":"X"},"action":"harvest","summary":"good-harvest","bonus":1.2800000000000014},{"rt":576.3999999985099,"stimulus":"\n                    <p><b>Action: <em>harvest</em></b></p>\n                    <p>This is the bee that you just saw.</p>\n                    <img src=\"bees-with-color/bee-B2DF.svg\" width=\"200\">\n                    <p><span class=\"greenText\"><b>Successful harvest!</b></span><br>Your pay has increased by $0.02. Your bonus pay is now $0.56.</p>\n            ","response":0,"trial_type":"html-button-response","trial_index":104,"time_elapsed":1810639,"internal_node_id":"0.0-4.0-1.46","subject_id":"616883b802e3b6d0fb70d603","study_id":"60edd13110225f80f9f3709b","session_id":"6196c1f2be766dda3ab8e5ce","condition":"contingent","relevant_dimensions":["wings","pattern"],"bee_group":{"antennae":"X","wings":"1","pattern":"D","legs":"X"},"bonus":1.2800000000000014},{"rt":29029.89999999851,"stimulus":"bees-with-color/bee-A1DM.svg","response":1,"trial_type":"image-button-response","trial_index":105,"time_elapsed":1839670,"internal_node_id":"0.0-4.0-0.47","subject_id":"616883b802e3b6d0fb70d603","study_id":"60edd13110225f80f9f3709b","session_id":"6196c1f2be766dda3ab8e5ce","condition":"contingent","relevant_dimensions":["wings","pattern"],"bee_group":{"antennae":"X","wings":"1","pattern":"D","legs":"X"},"action":"avoid","summary":"good-avoid","bonus":1.2800000000000014},{"rt":888.6000000014901,"stimulus":"\n                    <p><b>Action: <em>avoid</em></b></p>\n                    <p>This is the bee that you just saw.</p>\n                    <img src=\"bees-with-color/bee-A1DM.svg\" width=\"200\">\n                    <p><br>Your bonus pay is unchanged, and remains at $0.56.</p>\n            ","response":0,"trial_type":"html-button-response","trial_index":106,"time_elapsed":1840559,"internal_node_id":"0.0-4.0-1.47","subject_id":"616883b802e3b6d0fb70d603","study_id":"60edd13110225f80f9f3709b","session_id":"6196c1f2be766dda3ab8e5ce","condition":"contingent","relevant_dimensions":["wings","pattern"],"bee_group":{"antennae":"X","wings":"1","pattern":"D","legs":"X"},"bonus":1.2800000000000014},{"rt":1127,"stimulus":"bees-with-color/bee-A2DM.svg","response":0,"trial_type":"image-button-response","trial_index":107,"time_elapsed":1841687,"internal_node_id":"0.0-4.0-0.48","subject_id":"616883b802e3b6d0fb70d603","study_id":"60edd13110225f80f9f3709b","session_id":"6196c1f2be766dda3ab8e5ce","condition":"contingent","relevant_dimensions":["wings","pattern"],"bee_group":{"antennae":"X","wings":"1","pattern":"D","legs":"X"},"action":"harvest","summary":"good-harvest","bonus":1.2800000000000014},{"rt":645.2999999970198,"stimulus":"\n                    <p><b>Action: <em>harvest</em></b></p>\n                    <p>This is the bee that you just saw.</p>\n                    <img src=\"bees-with-color/bee-A2DM.svg\" width=\"200\">\n                    <p><span class=\"greenText\"><b>Successful harvest!</b></span><br>Your pay has increased by $0.02. Your bonus pay is now $0.58.</p>\n            ","response":0,"trial_type":"html-button-response","trial_index":108,"time_elapsed":1842334,"internal_node_id":"0.0-4.0-1.48","subject_id":"616883b802e3b6d0fb70d603","study_id":"60edd13110225f80f9f3709b","session_id":"6196c1f2be766dda3ab8e5ce","condition":"contingent","relevant_dimensions":["wings","pattern"],"bee_group":{"antennae":"X","wings":"1","pattern":"D","legs":"X"},"bonus":1.2800000000000014},{"rt":27595.89999999851,"stimulus":"bees-with-color/bee-B1DM.svg","response":1,"trial_type":"image-button-response","trial_index":109,"time_elapsed":1869931,"internal_node_id":"0.0-4.0-0.49","subject_id":"616883b802e3b6d0fb70d603","study_id":"60edd13110225f80f9f3709b","session_id":"6196c1f2be766dda3ab8e5ce","condition":"contingent","relevant_dimensions":["wings","pattern"],"bee_group":{"antennae":"X","wings":"1","pattern":"D","legs":"X"},"action":"avoid","summary":"good-avoid","bonus":1.2800000000000014},{"rt":1961,"stimulus":"\n                    <p><b>Action: <em>avoid</em></b></p>\n                    <p>This is the bee that you just saw.</p>\n                    <img src=\"bees-with-color/bee-B1DM.svg\" width=\"200\">\n                    <p><br>Your bonus pay is unchanged, and remains at $0.58.</p>\n            ","response":0,"trial_type":"html-button-response","trial_index":110,"time_elapsed":1871892,"internal_node_id":"0.0-4.0-1.49","subject_id":"616883b802e3b6d0fb70d603","study_id":"60edd13110225f80f9f3709b","session_id":"6196c1f2be766dda3ab8e5ce","condition":"contingent","relevant_dimensions":["wings","pattern"],"bee_group":{"antennae":"X","wings":"1","pattern":"D","legs":"X"},"bonus":1.2800000000000014},{"rt":1048.6999999955297,"stimulus":"bees-with-color/bee-B2DF.svg","response":0,"trial_type":"image-button-response","trial_index":111,"time_elapsed":1872943,"internal_node_id":"0.0-4.0-0.50","subject_id":"616883b802e3b6d0fb70d603","study_id":"60edd13110225f80f9f3709b","session_id":"6196c1f2be766dda3ab8e5ce","condition":"contingent","relevant_dimensions":["wings","pattern"],"bee_group":{"antennae":"X","wings":"1","pattern":"D","legs":"X"},"action":"harvest","summary":"good-harvest","bonus":1.2800000000000014},{"rt":476.40000000596046,"stimulus":"\n                    <p><b>Action: <em>harvest</em></b></p>\n                    <p>This is the bee that you just saw.</p>\n                    <img src=\"bees-with-color/bee-B2DF.svg\" width=\"200\">\n                    <p><span class=\"greenText\"><b>Successful harvest!</b></span><br>Your pay has increased by $0.02. Your bonus pay is now $0.60.</p>\n            ","response":0,"trial_type":"html-button-response","trial_index":112,"time_elapsed":1873421,"internal_node_id":"0.0-4.0-1.50","subject_id":"616883b802e3b6d0fb70d603","study_id":"60edd13110225f80f9f3709b","session_id":"6196c1f2be766dda3ab8e5ce","condition":"contingent","relevant_dimensions":["wings","pattern"],"bee_group":{"antennae":"X","wings":"1","pattern":"D","legs":"X"},"bonus":1.2800000000000014},{"rt":596.6000000014901,"stimulus":"bees-with-color/bee-B2SF.svg","response":0,"trial_type":"image-button-response","trial_index":113,"time_elapsed":1874018,"internal_node_id":"0.0-4.0-0.51","subject_id":"616883b802e3b6d0fb70d603","study_id":"60edd13110225f80f9f3709b","session_id":"6196c1f2be766dda3ab8e5ce","condition":"contingent","relevant_dimensions":["wings","pattern"],"bee_group":{"antennae":"X","wings":"1","pattern":"D","legs":"X"},"action":"harvest","summary":"good-harvest","bonus":1.2800000000000014},{"rt":448.90000000596046,"stimulus":"\n                    <p><b>Action: <em>harvest</em></b></p>\n                    <p>This is the bee that you just saw.</p>\n                    <img src=\"bees-with-color/bee-B2SF.svg\" width=\"200\">\n                    <p><span class=\"greenText\"><b>Successful harvest!</b></span><br>Your pay has increased by $0.02. Your bonus pay is now $0.62.</p>\n            ","response":0,"trial_type":"html-button-response","trial_index":114,"time_elapsed":1874468,"internal_node_id":"0.0-4.0-1.51","subject_id":"616883b802e3b6d0fb70d603","study_id":"60edd13110225f80f9f3709b","session_id":"6196c1f2be766dda3ab8e5ce","condition":"contingent","relevant_dimensions":["wings","pattern"],"bee_group":{"antennae":"X","wings":"1","pattern":"D","legs":"X"},"bonus":1.2800000000000014},{"rt":5263.29999999702,"stimulus":"bees-with-color/bee-A1DM.svg","response":1,"trial_type":"image-button-response","trial_index":115,"time_elapsed":1879733,"internal_node_id":"0.0-4.0-0.52","subject_id":"616883b802e3b6d0fb70d603","study_id":"60edd13110225f80f9f3709b","session_id":"6196c1f2be766dda3ab8e5ce","condition":"contingent","relevant_dimensions":["wings","pattern"],"bee_group":{"antennae":"X","wings":"1","pattern":"D","legs":"X"},"action":"avoid","summary":"good-avoid","bonus":1.2800000000000014},{"rt":1011.2999999970198,"stimulus":"\n                    <p><b>Action: <em>avoid</em></b></p>\n                    <p>This is the bee that you just saw.</p>\n                    <img src=\"bees-with-color/bee-A1DM.svg\" width=\"200\">\n                    <p><br>Your bonus pay is unchanged, and remains at $0.62.</p>\n            ","response":0,"trial_type":"html-button-response","trial_index":116,"time_elapsed":1880745,"internal_node_id":"0.0-4.0-1.52","subject_id":"616883b802e3b6d0fb70d603","study_id":"60edd13110225f80f9f3709b","session_id":"6196c1f2be766dda3ab8e5ce","condition":"contingent","relevant_dimensions":["wings","pattern"],"bee_group":{"antennae":"X","wings":"1","pattern":"D","legs":"X"},"bonus":1.2800000000000014},{"rt":26099.39999999851,"stimulus":"bees-with-color/bee-A1SM.svg","response":0,"trial_type":"image-button-response","trial_index":117,"time_elapsed":1906846,"internal_node_id":"0.0-4.0-0.53","subject_id":"616883b802e3b6d0fb70d603","study_id":"60edd13110225f80f9f3709b","session_id":"6196c1f2be766dda3ab8e5ce","condition":"contingent","relevant_dimensions":["wings","pattern"],"bee_group":{"antennae":"X","wings":"1","pattern":"D","legs":"X"},"action":"harvest","summary":"good-harvest","bonus":1.2800000000000014},{"rt":814.6999999955297,"stimulus":"\n                    <p><b>Action: <em>harvest</em></b></p>\n                    <p>This is the bee that you just saw.</p>\n                    <img src=\"bees-with-color/bee-A1SM.svg\" width=\"200\">\n                    <p><span class=\"greenText\"><b>Successful harvest!</b></span><br>Your pay has increased by $0.02. Your bonus pay is now $0.64.</p>\n            ","response":0,"trial_type":"html-button-response","trial_index":118,"time_elapsed":1907662,"internal_node_id":"0.0-4.0-1.53","subject_id":"616883b802e3b6d0fb70d603","study_id":"60edd13110225f80f9f3709b","session_id":"6196c1f2be766dda3ab8e5ce","condition":"contingent","relevant_dimensions":["wings","pattern"],"bee_group":{"antennae":"X","wings":"1","pattern":"D","legs":"X"},"bonus":1.2800000000000014},{"rt":951.1000000014901,"stimulus":"bees-with-color/bee-B2DM.svg","response":0,"trial_type":"image-button-response","trial_index":119,"time_elapsed":1908614,"internal_node_id":"0.0-4.0-0.54","subject_id":"616883b802e3b6d0fb70d603","study_id":"60edd13110225f80f9f3709b","session_id":"6196c1f2be766dda3ab8e5ce","condition":"contingent","relevant_dimensions":["wings","pattern"],"bee_group":{"antennae":"X","wings":"1","pattern":"D","legs":"X"},"action":"harvest","summary":"good-harvest","bonus":1.2800000000000014},{"rt":390.6000000014901,"stimulus":"\n                    <p><b>Action: <em>harvest</em></b></p>\n                    <p>This is the bee that you just saw.</p>\n                    <img src=\"bees-with-color/bee-B2DM.svg\" width=\"200\">\n                    <p><span class=\"greenText\"><b>Successful harvest!</b></span><br>Your pay has increased by $0.02. Your bonus pay is now $0.66.</p>\n            ","response":0,"trial_type":"html-button-response","trial_index":120,"time_elapsed":1909006,"internal_node_id":"0.0-4.0-1.54","subject_id":"616883b802e3b6d0fb70d603","study_id":"60edd13110225f80f9f3709b","session_id":"6196c1f2be766dda3ab8e5ce","condition":"contingent","relevant_dimensions":["wings","pattern"],"bee_group":{"antennae":"X","wings":"1","pattern":"D","legs":"X"},"bonus":1.2800000000000014},{"rt":1105.1000000014901,"stimulus":"bees-with-color/bee-A2DF.svg","response":0,"trial_type":"image-button-response","trial_index":121,"time_elapsed":1910112,"internal_node_id":"0.0-4.0-0.55","subject_id":"616883b802e3b6d0fb70d603","study_id":"60edd13110225f80f9f3709b","session_id":"6196c1f2be766dda3ab8e5ce","condition":"contingent","relevant_dimensions":["wings","pattern"],"bee_group":{"antennae":"X","wings":"1","pattern":"D","legs":"X"},"action":"harvest","summary":"good-harvest","bonus":1.2800000000000014},{"rt":378.70000000298023,"stimulus":"\n                    <p><b>Action: <em>harvest</em></b></p>\n                    <p>This is the bee that you just saw.</p>\n                    <img src=\"bees-with-color/bee-A2DF.svg\" width=\"200\">\n                    <p><span class=\"greenText\"><b>Successful harvest!</b></span><br>Your pay has increased by $0.02. Your bonus pay is now $0.68.</p>\n            ","response":0,"trial_type":"html-button-response","trial_index":122,"time_elapsed":1910492,"internal_node_id":"0.0-4.0-1.55","subject_id":"616883b802e3b6d0fb70d603","study_id":"60edd13110225f80f9f3709b","session_id":"6196c1f2be766dda3ab8e5ce","condition":"contingent","relevant_dimensions":["wings","pattern"],"bee_group":{"antennae":"X","wings":"1","pattern":"D","legs":"X"},"bonus":1.2800000000000014},{"rt":41854.5,"stimulus":"bees-with-color/bee-A1DF.svg","response":1,"trial_type":"image-button-response","trial_index":123,"time_elapsed":1952347,"internal_node_id":"0.0-4.0-0.56","subject_id":"616883b802e3b6d0fb70d603","study_id":"60edd13110225f80f9f3709b","session_id":"6196c1f2be766dda3ab8e5ce","condition":"contingent","relevant_dimensions":["wings","pattern"],"bee_group":{"antennae":"X","wings":"1","pattern":"D","legs":"X"},"action":"avoid","summary":"good-avoid","bonus":1.2800000000000014},{"rt":852.8999999985099,"stimulus":"\n                    <p><b>Action: <em>avoid</em></b></p>\n                    <p>This is the bee that you just saw.</p>\n                    <img src=\"bees-with-color/bee-A1DF.svg\" width=\"200\">\n                    <p><br>Your bonus pay is unchanged, and remains at $0.68.</p>\n            ","response":0,"trial_type":"html-button-response","trial_index":124,"time_elapsed":1953201,"internal_node_id":"0.0-4.0-1.56","subject_id":"616883b802e3b6d0fb70d603","study_id":"60edd13110225f80f9f3709b","session_id":"6196c1f2be766dda3ab8e5ce","condition":"contingent","relevant_dimensions":["wings","pattern"],"bee_group":{"antennae":"X","wings":"1","pattern":"D","legs":"X"},"bonus":1.2800000000000014},{"rt":26107.70000000298,"stimulus":"bees-with-color/bee-B1SF.svg","response":0,"trial_type":"image-button-response","trial_index":125,"time_elapsed":1979311,"internal_node_id":"0.0-4.0-0.57","subject_id":"616883b802e3b6d0fb70d603","study_id":"60edd13110225f80f9f3709b","session_id":"6196c1f2be766dda3ab8e5ce","condition":"contingent","relevant_dimensions":["wings","pattern"],"bee_group":{"antennae":"X","wings":"1","pattern":"D","legs":"X"},"action":"harvest","summary":"good-harvest","bonus":1.2800000000000014},{"rt":655.9000000059605,"stimulus":"\n                    <p><b>Action: <em>harvest</em></b></p>\n                    <p>This is the bee that you just saw.</p>\n                    <img src=\"bees-with-color/bee-B1SF.svg\" width=\"200\">\n                    <p><span class=\"greenText\"><b>Successful harvest!</b></span><br>Your pay has increased by $0.02. Your bonus pay is now $0.70.</p>\n            ","response":0,"trial_type":"html-button-response","trial_index":126,"time_elapsed":1979968,"internal_node_id":"0.0-4.0-1.57","subject_id":"616883b802e3b6d0fb70d603","study_id":"60edd13110225f80f9f3709b","session_id":"6196c1f2be766dda3ab8e5ce","condition":"contingent","relevant_dimensions":["wings","pattern"],"bee_group":{"antennae":"X","wings":"1","pattern":"D","legs":"X"},"bonus":1.2800000000000014},{"rt":5886.79999999702,"stimulus":"bees-with-color/bee-B1DF.svg","response":1,"trial_type":"image-button-response","trial_index":127,"time_elapsed":1985856,"internal_node_id":"0.0-4.0-0.58","subject_id":"616883b802e3b6d0fb70d603","study_id":"60edd13110225f80f9f3709b","session_id":"6196c1f2be766dda3ab8e5ce","condition":"contingent","relevant_dimensions":["wings","pattern"],"bee_group":{"antennae":"X","wings":"1","pattern":"D","legs":"X"},"action":"avoid","summary":"good-avoid","bonus":1.2800000000000014},{"rt":740.7999999970198,"stimulus":"\n                    <p><b>Action: <em>avoid</em></b></p>\n                    <p>This is the bee that you just saw.</p>\n                    <img src=\"bees-with-color/bee-B1DF.svg\" width=\"200\">\n                    <p><br>Your bonus pay is unchanged, and remains at $0.70.</p>\n            ","response":0,"trial_type":"html-button-response","trial_index":128,"time_elapsed":1986598,"internal_node_id":"0.0-4.0-1.58","subject_id":"616883b802e3b6d0fb70d603","study_id":"60edd13110225f80f9f3709b","session_id":"6196c1f2be766dda3ab8e5ce","condition":"contingent","relevant_dimensions":["wings","pattern"],"bee_group":{"antennae":"X","wings":"1","pattern":"D","legs":"X"},"bonus":1.2800000000000014},{"rt":1301.1000000014901,"stimulus":"bees-with-color/bee-A2SM.svg","response":0,"trial_type":"image-button-response","trial_index":129,"time_elapsed":1987901,"internal_node_id":"0.0-4.0-0.59","subject_id":"616883b802e3b6d0fb70d603","study_id":"60edd13110225f80f9f3709b","session_id":"6196c1f2be766dda3ab8e5ce","condition":"contingent","relevant_dimensions":["wings","pattern"],"bee_group":{"antennae":"X","wings":"1","pattern":"D","legs":"X"},"action":"harvest","summary":"good-harvest","bonus":1.2800000000000014},{"rt":738.8999999985099,"stimulus":"\n                    <p><b>Action: <em>harvest</em></b></p>\n                    <p>This is the bee that you just saw.</p>\n                    <img src=\"bees-with-color/bee-A2SM.svg\" width=\"200\">\n                    <p><span class=\"greenText\"><b>Successful harvest!</b></span><br>Your pay has increased by $0.02. Your bonus pay is now $0.72.</p>\n            ","response":0,"trial_type":"html-button-response","trial_index":130,"time_elapsed":1988640,"internal_node_id":"0.0-4.0-1.59","subject_id":"616883b802e3b6d0fb70d603","study_id":"60edd13110225f80f9f3709b","session_id":"6196c1f2be766dda3ab8e5ce","condition":"contingent","relevant_dimensions":["wings","pattern"],"bee_group":{"antennae":"X","wings":"1","pattern":"D","legs":"X"},"bonus":1.2800000000000014},{"rt":595.1000000014901,"stimulus":"bees-with-color/bee-A2SF.svg","response":0,"trial_type":"image-button-response","trial_index":131,"time_elapsed":1989237,"internal_node_id":"0.0-4.0-0.60","subject_id":"616883b802e3b6d0fb70d603","study_id":"60edd13110225f80f9f3709b","session_id":"6196c1f2be766dda3ab8e5ce","condition":"contingent","relevant_dimensions":["wings","pattern"],"bee_group":{"antennae":"X","wings":"1","pattern":"D","legs":"X"},"action":"harvest","summary":"good-harvest","bonus":1.2800000000000014},{"rt":443.29999999701977,"stimulus":"\n                    <p><b>Action: <em>harvest</em></b></p>\n                    <p>This is the bee that you just saw.</p>\n                    <img src=\"bees-with-color/bee-A2SF.svg\" width=\"200\">\n                    <p><span class=\"greenText\"><b>Successful harvest!</b></span><br>Your pay has increased by $0.02. Your bonus pay is now $0.74.</p>\n            ","response":0,"trial_type":"html-button-response","trial_index":132,"time_elapsed":1989681,"internal_node_id":"0.0-4.0-1.60","subject_id":"616883b802e3b6d0fb70d603","study_id":"60edd13110225f80f9f3709b","session_id":"6196c1f2be766dda3ab8e5ce","condition":"contingent","relevant_dimensions":["wings","pattern"],"bee_group":{"antennae":"X","wings":"1","pattern":"D","legs":"X"},"bonus":1.2800000000000014},{"rt":640.7000000029802,"stimulus":"bees-with-color/bee-B2SM.svg","response":0,"trial_type":"image-button-response","trial_index":133,"time_elapsed":1990322,"internal_node_id":"0.0-4.0-0.61","subject_id":"616883b802e3b6d0fb70d603","study_id":"60edd13110225f80f9f3709b","session_id":"6196c1f2be766dda3ab8e5ce","condition":"contingent","relevant_dimensions":["wings","pattern"],"bee_group":{"antennae":"X","wings":"1","pattern":"D","legs":"X"},"action":"harvest","summary":"good-harvest","bonus":1.2800000000000014},{"rt":421.29999999701977,"stimulus":"\n                    <p><b>Action: <em>harvest</em></b></p>\n                    <p>This is the bee that you just saw.</p>\n                    <img src=\"bees-with-color/bee-B2SM.svg\" width=\"200\">\n                    <p><span class=\"greenText\"><b>Successful harvest!</b></span><br>Your pay has increased by $0.02. Your bonus pay is now $0.76.</p>\n            ","response":0,"trial_type":"html-button-response","trial_index":134,"time_elapsed":1990745,"internal_node_id":"0.0-4.0-1.61","subject_id":"616883b802e3b6d0fb70d603","study_id":"60edd13110225f80f9f3709b","session_id":"6196c1f2be766dda3ab8e5ce","condition":"contingent","relevant_dimensions":["wings","pattern"],"bee_group":{"antennae":"X","wings":"1","pattern":"D","legs":"X"},"bonus":1.2800000000000014},{"rt":35757.69999999553,"stimulus":"bees-with-color/bee-A1SF.svg","response":0,"trial_type":"image-button-response","trial_index":135,"time_elapsed":2026504,"internal_node_id":"0.0-4.0-0.62","subject_id":"616883b802e3b6d0fb70d603","study_id":"60edd13110225f80f9f3709b","session_id":"6196c1f2be766dda3ab8e5ce","condition":"contingent","relevant_dimensions":["wings","pattern"],"bee_group":{"antennae":"X","wings":"1","pattern":"D","legs":"X"},"action":"harvest","summary":"good-harvest","bonus":1.2800000000000014},{"rt":851,"stimulus":"\n                    <p><b>Action: <em>harvest</em></b></p>\n                    <p>This is the bee that you just saw.</p>\n                    <img src=\"bees-with-color/bee-A1SF.svg\" width=\"200\">\n                    <p><span class=\"greenText\"><b>Successful harvest!</b></span><br>Your pay has increased by $0.02. Your bonus pay is now $0.78.</p>\n            ","response":0,"trial_type":"html-button-response","trial_index":136,"time_elapsed":2027356,"internal_node_id":"0.0-4.0-1.62","subject_id":"616883b802e3b6d0fb70d603","study_id":"60edd13110225f80f9f3709b","session_id":"6196c1f2be766dda3ab8e5ce","condition":"contingent","relevant_dimensions":["wings","pattern"],"bee_group":{"antennae":"X","wings":"1","pattern":"D","legs":"X"},"bonus":1.2800000000000014},{"rt":4999.10000000149,"stimulus":"bees-with-color/bee-B1SM.svg","response":0,"trial_type":"image-button-response","trial_index":137,"time_elapsed":2032356,"internal_node_id":"0.0-4.0-0.63","subject_id":"616883b802e3b6d0fb70d603","study_id":"60edd13110225f80f9f3709b","session_id":"6196c1f2be766dda3ab8e5ce","condition":"contingent","relevant_dimensions":["wings","pattern"],"bee_group":{"antennae":"X","wings":"1","pattern":"D","legs":"X"},"action":"harvest","summary":"good-harvest","bonus":1.2800000000000014},{"rt":977.1000000014901,"stimulus":"\n                    <p><b>Action: <em>harvest</em></b></p>\n                    <p>This is the bee that you just saw.</p>\n                    <img src=\"bees-with-color/bee-B1SM.svg\" width=\"200\">\n                    <p><span class=\"greenText\"><b>Successful harvest!</b></span><br>Your pay has increased by $0.02. Your bonus pay is now $0.80.</p>\n            ","response":0,"trial_type":"html-button-response","trial_index":138,"time_elapsed":2033334,"internal_node_id":"0.0-4.0-1.63","subject_id":"616883b802e3b6d0fb70d603","study_id":"60edd13110225f80f9f3709b","session_id":"6196c1f2be766dda3ab8e5ce","condition":"contingent","relevant_dimensions":["wings","pattern"],"bee_group":{"antennae":"X","wings":"1","pattern":"D","legs":"X"},"bonus":1.2800000000000014},{"rt":2802.8000000044703,"stimulus":"You have completed the first part of this experiment.<br><br>You will now begin a shorter second part, in which you will receive no feedback.<br>The same rules regarding bonus pay apply.<br><br>Press any key to begin.","response":"l","trial_type":"html-keyboard-response","trial_index":139,"time_elapsed":2036138,"internal_node_id":"0.0-5.0","subject_id":"616883b802e3b6d0fb70d603","study_id":"60edd13110225f80f9f3709b","session_id":"6196c1f2be766dda3ab8e5ce","condition":"contingent","relevant_dimensions":["wings","pattern"],"bee_group":{"antennae":"X","wings":"1","pattern":"D","legs":"X"},"bonus":1.2800000000000014},{"rt":2315.2999999970198,"stimulus":"bees-with-color/bee-B2SF.svg","response":0,"trial_type":"image-button-response","trial_index":140,"time_elapsed":2038460,"internal_node_id":"0.0-6.0-0.0","subject_id":"616883b802e3b6d0fb70d603","study_id":"60edd13110225f80f9f3709b","session_id":"6196c1f2be766dda3ab8e5ce","condition":"contingent","relevant_dimensions":["wings","pattern"],"bee_group":{"antennae":"X","wings":"1","pattern":"D","legs":"X"},"bonus":1.2800000000000014},{"rt":10154.79999999702,"stimulus":"bees-with-color/bee-B1SF.svg","response":0,"trial_type":"image-button-response","trial_index":141,"time_elapsed":2048617,"internal_node_id":"0.0-6.0-0.1","subject_id":"616883b802e3b6d0fb70d603","study_id":"60edd13110225f80f9f3709b","session_id":"6196c1f2be766dda3ab8e5ce","condition":"contingent","relevant_dimensions":["wings","pattern"],"bee_group":{"antennae":"X","wings":"1","pattern":"D","legs":"X"},"bonus":1.2800000000000014},{"rt":4778.70000000298,"stimulus":"bees-with-color/bee-B1SM.svg","response":0,"trial_type":"image-button-response","trial_index":142,"time_elapsed":2053397,"internal_node_id":"0.0-6.0-0.2","subject_id":"616883b802e3b6d0fb70d603","study_id":"60edd13110225f80f9f3709b","session_id":"6196c1f2be766dda3ab8e5ce","condition":"contingent","relevant_dimensions":["wings","pattern"],"bee_group":{"antennae":"X","wings":"1","pattern":"D","legs":"X"},"bonus":1.2800000000000014},{"rt":7747.39999999851,"stimulus":"bees-with-color/bee-B1DM.svg","response":1,"trial_type":"image-button-response","trial_index":143,"time_elapsed":2061147,"internal_node_id":"0.0-6.0-0.3","subject_id":"616883b802e3b6d0fb70d603","study_id":"60edd13110225f80f9f3709b","session_id":"6196c1f2be766dda3ab8e5ce","condition":"contingent","relevant_dimensions":["wings","pattern"],"bee_group":{"antennae":"X","wings":"1","pattern":"D","legs":"X"},"bonus":1.2800000000000014},{"rt":10476,"stimulus":"bees-with-color/bee-A1SF.svg","response":0,"trial_type":"image-button-response","trial_index":144,"time_elapsed":2071625,"internal_node_id":"0.0-6.0-0.4","subject_id":"616883b802e3b6d0fb70d603","study_id":"60edd13110225f80f9f3709b","session_id":"6196c1f2be766dda3ab8e5ce","condition":"contingent","relevant_dimensions":["wings","pattern"],"bee_group":{"antennae":"X","wings":"1","pattern":"D","legs":"X"},"bonus":1.2800000000000014},{"rt":4208.19999999553,"stimulus":"bees-with-color/bee-A1DM.svg","response":1,"trial_type":"image-button-response","trial_index":145,"time_elapsed":2075835,"internal_node_id":"0.0-6.0-0.5","subject_id":"616883b802e3b6d0fb70d603","study_id":"60edd13110225f80f9f3709b","session_id":"6196c1f2be766dda3ab8e5ce","condition":"contingent","relevant_dimensions":["wings","pattern"],"bee_group":{"antennae":"X","wings":"1","pattern":"D","legs":"X"},"bonus":1.2800000000000014},{"rt":1302.1999999955297,"stimulus":"bees-with-color/bee-A2DM.svg","response":0,"trial_type":"image-button-response","trial_index":146,"time_elapsed":2077139,"internal_node_id":"0.0-6.0-0.6","subject_id":"616883b802e3b6d0fb70d603","study_id":"60edd13110225f80f9f3709b","session_id":"6196c1f2be766dda3ab8e5ce","condition":"contingent","relevant_dimensions":["wings","pattern"],"bee_group":{"antennae":"X","wings":"1","pattern":"D","legs":"X"},"bonus":1.2800000000000014},{"rt":782.6000000014901,"stimulus":"bees-with-color/bee-A2SM.svg","response":0,"trial_type":"image-button-response","trial_index":147,"time_elapsed":2077923,"internal_node_id":"0.0-6.0-0.7","subject_id":"616883b802e3b6d0fb70d603","study_id":"60edd13110225f80f9f3709b","session_id":"6196c1f2be766dda3ab8e5ce","condition":"contingent","relevant_dimensions":["wings","pattern"],"bee_group":{"antennae":"X","wings":"1","pattern":"D","legs":"X"},"bonus":1.2800000000000014},{"rt":842.5,"stimulus":"bees-with-color/bee-B2DF.svg","response":0,"trial_type":"image-button-response","trial_index":148,"time_elapsed":2078768,"internal_node_id":"0.0-6.0-0.8","subject_id":"616883b802e3b6d0fb70d603","study_id":"60edd13110225f80f9f3709b","session_id":"6196c1f2be766dda3ab8e5ce","condition":"contingent","relevant_dimensions":["wings","pattern"],"bee_group":{"antennae":"X","wings":"1","pattern":"D","legs":"X"},"bonus":1.2800000000000014},{"rt":10916.80000000447,"stimulus":"bees-with-color/bee-A1SM.svg","response":0,"trial_type":"image-button-response","trial_index":149,"time_elapsed":2089686,"internal_node_id":"0.0-6.0-0.9","subject_id":"616883b802e3b6d0fb70d603","study_id":"60edd13110225f80f9f3709b","session_id":"6196c1f2be766dda3ab8e5ce","condition":"contingent","relevant_dimensions":["wings","pattern"],"bee_group":{"antennae":"X","wings":"1","pattern":"D","legs":"X"},"bonus":1.2800000000000014},{"rt":9742.39999999851,"stimulus":"bees-with-color/bee-A1DF.svg","response":1,"trial_type":"image-button-response","trial_index":150,"time_elapsed":2099430,"internal_node_id":"0.0-6.0-0.10","subject_id":"616883b802e3b6d0fb70d603","study_id":"60edd13110225f80f9f3709b","session_id":"6196c1f2be766dda3ab8e5ce","condition":"contingent","relevant_dimensions":["wings","pattern"],"bee_group":{"antennae":"X","wings":"1","pattern":"D","legs":"X"},"bonus":1.2800000000000014},{"rt":1294.1000000014901,"stimulus":"bees-with-color/bee-A2DF.svg","response":0,"trial_type":"image-button-response","trial_index":151,"time_elapsed":2100726,"internal_node_id":"0.0-6.0-0.11","subject_id":"616883b802e3b6d0fb70d603","study_id":"60edd13110225f80f9f3709b","session_id":"6196c1f2be766dda3ab8e5ce","condition":"contingent","relevant_dimensions":["wings","pattern"],"bee_group":{"antennae":"X","wings":"1","pattern":"D","legs":"X"},"bonus":1.2800000000000014},{"rt":594.3999999985099,"stimulus":"bees-with-color/bee-B2SM.svg","response":0,"trial_type":"image-button-response","trial_index":152,"time_elapsed":2101322,"internal_node_id":"0.0-6.0-0.12","subject_id":"616883b802e3b6d0fb70d603","study_id":"60edd13110225f80f9f3709b","session_id":"6196c1f2be766dda3ab8e5ce","condition":"contingent","relevant_dimensions":["wings","pattern"],"bee_group":{"antennae":"X","wings":"1","pattern":"D","legs":"X"},"bonus":1.2800000000000014},{"rt":610.5,"stimulus":"bees-with-color/bee-A2SF.svg","response":0,"trial_type":"image-button-response","trial_index":153,"time_elapsed":2101934,"internal_node_id":"0.0-6.0-0.13","subject_id":"616883b802e3b6d0fb70d603","study_id":"60edd13110225f80f9f3709b","session_id":"6196c1f2be766dda3ab8e5ce","condition":"contingent","relevant_dimensions":["wings","pattern"],"bee_group":{"antennae":"X","wings":"1","pattern":"D","legs":"X"},"bonus":1.2800000000000014},{"rt":6107.39999999851,"stimulus":"bees-with-color/bee-B1DF.svg","response":1,"trial_type":"image-button-response","trial_index":154,"time_elapsed":2108043,"internal_node_id":"0.0-6.0-0.14","subject_id":"616883b802e3b6d0fb70d603","study_id":"60edd13110225f80f9f3709b","session_id":"6196c1f2be766dda3ab8e5ce","condition":"contingent","relevant_dimensions":["wings","pattern"],"bee_group":{"antennae":"X","wings":"1","pattern":"D","legs":"X"},"bonus":1.2800000000000014},{"rt":1561.5,"stimulus":"bees-with-color/bee-B2DM.svg","response":0,"trial_type":"image-button-response","trial_index":155,"time_elapsed":2109607,"internal_node_id":"0.0-6.0-0.15","subject_id":"616883b802e3b6d0fb70d603","study_id":"60edd13110225f80f9f3709b","session_id":"6196c1f2be766dda3ab8e5ce","condition":"contingent","relevant_dimensions":["wings","pattern"],"bee_group":{"antennae":"X","wings":"1","pattern":"D","legs":"X"},"bonus":1.2800000000000014},{"rt":7828.79999999702,"stimulus":"bees-with-color/bee-B1DM.svg","response":1,"trial_type":"image-button-response","trial_index":156,"time_elapsed":2117437,"internal_node_id":"0.0-6.0-0.16","subject_id":"616883b802e3b6d0fb70d603","study_id":"60edd13110225f80f9f3709b","session_id":"6196c1f2be766dda3ab8e5ce","condition":"contingent","relevant_dimensions":["wings","pattern"],"bee_group":{"antennae":"X","wings":"1","pattern":"D","legs":"X"},"bonus":1.2800000000000014},{"rt":6384.60000000149,"stimulus":"bees-with-color/bee-B1SF.svg","response":0,"trial_type":"image-button-response","trial_index":157,"time_elapsed":2123823,"internal_node_id":"0.0-6.0-0.17","subject_id":"616883b802e3b6d0fb70d603","study_id":"60edd13110225f80f9f3709b","session_id":"6196c1f2be766dda3ab8e5ce","condition":"contingent","relevant_dimensions":["wings","pattern"],"bee_group":{"antennae":"X","wings":"1","pattern":"D","legs":"X"},"bonus":1.2800000000000014},{"rt":744.5,"stimulus":"bees-with-color/bee-B2SM.svg","response":0,"trial_type":"image-button-response","trial_index":158,"time_elapsed":2124569,"internal_node_id":"0.0-6.0-0.18","subject_id":"616883b802e3b6d0fb70d603","study_id":"60edd13110225f80f9f3709b","session_id":"6196c1f2be766dda3ab8e5ce","condition":"contingent","relevant_dimensions":["wings","pattern"],"bee_group":{"antennae":"X","wings":"1","pattern":"D","legs":"X"},"bonus":1.2800000000000014},{"rt":488.80000000447035,"stimulus":"bees-with-color/bee-B2DF.svg","response":0,"trial_type":"image-button-response",