[{"success":true,"trial_type":"fullscreen","trial_index":0,"time_elapsed":2215,"internal_node_id":"0.0-0.0","subject_id":"5bc9e924e642db0001d3a1c5","study_id":"6197b3f67c2b5cd3b6d9596a","session_id":"619bef051da4e025cc38e05d","condition":"contingent","relevant_dimensions":["wings","pattern"],"bee_group":{"antennae":"X","wings":"2","pattern":"S","legs":"X"},"bonus":1.1200000000000006},{"success":true,"timeout":false,"failed_images":[],"failed_audio":[],"failed_video":[],"trial_type":"preload","trial_index":1,"time_elapsed":2380,"internal_node_id":"0.0-1.0","subject_id":"5bc9e924e642db0001d3a1c5","study_id":"6197b3f67c2b5cd3b6d9596a","session_id":"619bef051da4e025cc38e05d","condition":"contingent","relevant_dimensions":["wings","pattern"],"bee_group":{"antennae":"X","wings":"2","pattern":"S","legs":"X"},"bonus":1.1200000000000006},{"rt":682,"stimulus":"Welcome! Press any key to begin.","response":" ","trial_type":"html-keyboard-response","trial_index":2,"time_elapsed":3064,"internal_node_id":"0.0-2.0","subject_id":"5bc9e924e642db0001d3a1c5","study_id":"6197b3f67c2b5cd3b6d9596a","session_id":"619bef051da4e025cc38e05d","condition":"contingent","relevant_dimensions":["wings","pattern"],"bee_group":{"antennae":"X","wings":"2","pattern":"S","legs":"X"},"bonus":1.1200000000000006},{"view_history":[{"page_index":0,"viewing_time":1433},{"page_index":1,"viewing_time":1147},{"page_index":2,"viewing_time":1074},{"page_index":3,"viewing_time":978},{"page_index":4,"viewing_time":978},{"page_index":5,"viewing_time":587},{"page_index":6,"viewing_time":757},{"page_index":7,"viewing_time":880},{"page_index":8,"viewing_time":85},{"page_index":9,"viewing_time":503},{"page_index":10,"viewing_time":414},{"page_index":11,"viewing_time":1491},{"page_index":12,"viewing_time":989},{"page_index":13,"viewing_time":1002},{"page_index":14,"viewing_time":1015}],"rt":13333,"trial_type":"instructions","trial_index":3,"time_elapsed":16397,"internal_node_id":"0.0-3.0-0.0","subject_id":"5bc9e924e642db0001d3a1c5","study_id":"6197b3f67c2b5cd3b6d9596a","session_id":"619bef051da4e025cc38e05d","condition":"contingent","relevant_dimensions":["wings","pattern"],"bee_group":{"antennae":"X","wings":"2","pattern":"S","legs":"X"},"bonus":1.1200000000000006},{"rt":14904,"response":{"Q0":["Two or six legs","Stripes or spots on body","Single or double wings","Antennae or no antennae"]},"question_order":[0],"trial_type":"survey-multi-select","trial_index":4,"time_elapsed":31309,"internal_node_id":"0.0-3.0-1.0","subject_id":"5bc9e924e642db0001d3a1c5","study_id":"6197b3f67c2b5cd3b6d9596a","session_id":"619bef051da4e025cc38e05d","condition":"contingent","relevant_dimensions":["wings","pattern"],"bee_group":{"antennae":"X","wings":"2","pattern":"S","legs":"X"},"correct":true,"bonus":1.1200000000000006},{"rt":8472,"response":{"Q1":"No.","Q2":"Based on the four features of the bee.","Q3":"You do not learn if it was friendly or dangerous, and do not alter your bonus."},"question_order":[0,1,2],"trial_type":"survey-multi-choice","trial_index":5,"time_elapsed":39784,"internal_node_id":"0.0-3.0-2.0","subject_id":"5bc9e924e642db0001d3a1c5","study_id":"6197b3f67c2b5cd3b6d9596a","session_id":"619bef051da4e025cc38e05d","condition":"contingent","relevant_dimensions":["wings","pattern"],"bee_group":{"antennae":"X","wings":"2","pattern":"S","legs":"X"},"correct":true,"bonus":1.1200000000000006},{"rt":4395,"stimulus":"<p>Congrats, you got everything right<br>When you're ready, click the button below to continue to the experiment.</p>","response":0,"trial_type":"html-button-response","trial_index":6,"time_elapsed":44182,"internal_node_id":"0.0-3.0-3.0","subject_id":"5bc9e924e642db0001d3a1c5","study_id":"6197b3f67c2b5cd3b6d9596a","session_id":"619bef051da4e025cc38e05d","condition":"contingent","relevant_dimensions":["wings","pattern"],"bee_group":{"antennae":"X","wings":"2","pattern":"S","legs":"X"},"bonus":1.1200000000000006},{"rt":2233,"stimulus":"bees-with-color/bee-A2DF.svg","response":0,"trial_type":"image-button-response","trial_index":7,"time_elapsed":46417,"internal_node_id":"0.0-4.0-0.0","subject_id":"5bc9e924e642db0001d3a1c5","study_id":"6197b3f67c2b5cd3b6d9596a","session_id":"619bef051da4e025cc38e05d","condition":"contingent","relevant_dimensions":["wings","pattern"],"bee_group":{"antennae":"X","wings":"2","pattern":"S","legs":"X"},"action":"harvest","summary":"good-harvest","bonus":1.1200000000000006},{"rt":5632,"stimulus":"\n                    <p><b>Action: <em>harvest</em></b></p>\n                    <p>This is the bee that you just saw.</p>\n                    <img src=\"bees-with-color/bee-A2DF.svg\" width=\"200\">\n                    <p><span class=\"greenText\"><b>Successful harvest!</b></span><br>Your pay has increased by $0.02. Your bonus pay is now $0.56.</p>\n            ","response":0,"trial_type":"html-button-response","trial_index":8,"time_elapsed":52075,"internal_node_id":"0.0-4.0-1.0","subject_id":"5bc9e924e642db0001d3a1c5","study_id":"6197b3f67c2b5cd3b6d9596a","session_id":"619bef051da4e025cc38e05d","condition":"contingent","relevant_dimensions":["wings","pattern"],"bee_group":{"antennae":"X","wings":"2","pattern":"S","legs":"X"},"bonus":1.1200000000000006},{"rt":2467,"stimulus":"bees-with-color/bee-A1DF.svg","response":0,"trial_type":"image-button-response","trial_index":9,"time_elapsed":54544,"internal_node_id":"0.0-4.0-0.1","subject_id":"5bc9e924e642db0001d3a1c5","study_id":"6197b3f67c2b5cd3b6d9596a","session_id":"619bef051da4e025cc38e05d","condition":"contingent","relevant_dimensions":["wings","pattern"],"bee_group":{"antennae":"X","wings":"2","pattern":"S","legs":"X"},"action":"harvest","summary":"good-harvest","bonus":1.1200000000000006},{"rt":3994,"stimulus":"\n                    <p><b>Action: <em>harvest</em></b></p>\n                    <p>This is the bee that you just saw.</p>\n                    <img src=\"bees-with-color/bee-A1DF.svg\" width=\"200\">\n                    <p><span class=\"greenText\"><b>Successful harvest!</b></span><br>Your pay has increased by $0.02. Your bonus pay is now $0.58.</p>\n            ","response":0,"trial_type":"html-button-response","trial_index":10,"time_elapsed":58539,"internal_node_id":"0.0-4.0-1.1","subject_id":"5bc9e924e642db0001d3a1c5","study_id":"6197b3f67c2b5cd3b6d9596a","session_id":"619bef051da4e025cc38e05d","condition":"contingent","relevant_dimensions":["wings","pattern"],"bee_group":{"antennae":"X","wings":"2","pattern":"S","legs":"X"},"bonus":1.1200000000000006},{"rt":1589,"stimulus":"bees-with-color/bee-B2SF.svg","response":0,"trial_type":"image-button-response","trial_index":11,"time_elapsed":60131,"internal_node_id":"0.0-4.0-0.2","subject_id":"5bc9e924e642db0001d3a1c5","study_id":"6197b3f67c2b5cd3b6d9596a","session_id":"619bef051da4e025cc38e05d","condition":"contingent","relevant_dimensions":["wings","pattern"],"bee_group":{"antennae":"X","wings":"2","pattern":"S","legs":"X"},"action":"harvest","summary":"bad-harvest","bonus":1.1200000000000006},{"rt":3574,"stimulus":"\n                    <p><b>Action: <em>harvest</em></b></p>\n                    <p>This is the bee that you just saw.</p>\n                    <img src=\"bees-with-color/bee-B2SF.svg\" width=\"200\">\n                    <p><span class=\"redText\">Bad choice, the bee was angry.</span><br><b>You have been stung!</b><br>Your pay has been decreased by $0.10. Your bonus pay is now $0.48.</p>\n            ","response":0,"trial_type":"html-button-response","trial_index":12,"time_elapsed":63708,"internal_node_id":"0.0-4.0-1.2","subject_id":"5bc9e924e642db0001d3a1c5","study_id":"6197b3f67c2b5cd3b6d9596a","session_id":"619bef051da4e025cc38e05d","condition":"contingent","relevant_dimensions":["wings","pattern"],"bee_group":{"antennae":"X","wings":"2","pattern":"S","legs":"X"},"bonus":1.1200000000000006},{"rt":1269,"stimulus":"bees-with-color/bee-B1SF.svg","response":1,"trial_type":"image-button-response","trial_index":13,"time_elapsed":64978,"internal_node_id":"0.0-4.0-0.3","subject_id":"5bc9e924e642db0001d3a1c5","study_id":"6197b3f67c2b5cd3b6d9596a","session_id":"619bef051da4e025cc38e05d","condition":"contingent","relevant_dimensions":["wings","pattern"],"bee_group":{"antennae":"X","wings":"2","pattern":"S","legs":"X"},"action":"avoid","summary":"bad-avoid","bonus":1.1200000000000006},{"rt":1159,"stimulus":"\n                    <p><b>Action: <em>avoid</em></b></p>\n                    <p>This is the bee that you just saw.</p>\n                    <img src=\"bees-with-color/bee-B1SF.svg\" width=\"200\">\n                    <p><br>Your bonus pay is unchanged, and remains at $0.48.</p>\n            ","response":0,"trial_type":"html-button-response","trial_index":14,"time_elapsed":66139,"internal_node_id":"0.0-4.0-1.3","subject_id":"5bc9e924e642db0001d3a1c5","study_id":"6197b3f67c2b5cd3b6d9596a","session_id":"619bef051da4e025cc38e05d","condition":"contingent","relevant_dimensions":["wings","pattern"],"bee_group":{"antennae":"X","wings":"2","pattern":"S","legs":"X"},"bonus":1.1200000000000006},{"rt":1232,"stimulus":"bees-with-color/bee-A1SF.svg","response":0,"trial_type":"image-button-response","trial_index":15,"time_elapsed":67375,"internal_node_id":"0.0-4.0-0.4","subject_id":"5bc9e924e642db0001d3a1c5","study_id":"6197b3f67c2b5cd3b6d9596a","session_id":"619bef051da4e025cc38e05d","condition":"contingent","relevant_dimensions":["wings","pattern"],"bee_group":{"antennae":"X","wings":"2","pattern":"S","legs":"X"},"action":"harvest","summary":"good-harvest","bonus":1.1200000000000006},{"rt":3077,"stimulus":"\n                    <p><b>Action: <em>harvest</em></b></p>\n                    <p>This is the bee that you just saw.</p>\n                    <img src=\"bees-with-color/bee-A1SF.svg\" width=\"200\">\n                    <p><span class=\"greenText\"><b>Successful harvest!</b></span><br>Your pay has increased by $0.02. Your bonus pay is now $0.50.</p>\n            ","response":0,"trial_type":"html-button-response","trial_index":16,"time_elapsed":70453,"internal_node_id":"0.0-4.0-1.4","subject_id":"5bc9e924e642db0001d3a1c5","study_id":"6197b3f67c2b5cd3b6d9596a","session_id":"619bef051da4e025cc38e05d","condition":"contingent","relevant_dimensions":["wings","pattern"],"bee_group":{"antennae":"X","wings":"2","pattern":"S","legs":"X"},"bonus":1.1200000000000006},{"rt":1305,"stimulus":"bees-with-color/bee-B1DM.svg","response":0,"trial_type":"image-button-response","trial_index":17,"time_elapsed":71760,"internal_node_id":"0.0-4.0-0.5","subject_id":"5bc9e924e642db0001d3a1c5","study_id":"6197b3f67c2b5cd3b6d9596a","session_id":"619bef051da4e025cc38e05d","condition":"contingent","relevant_dimensions":["wings","pattern"],"bee_group":{"antennae":"X","wings":"2","pattern":"S","legs":"X"},"action":"harvest","summary":"good-harvest","bonus":1.1200000000000006},{"rt":1466,"stimulus":"\n                    <p><b>Action: <em>harvest</em></b></p>\n                    <p>This is the bee that you just saw.</p>\n                    <img src=\"bees-with-color/bee-B1DM.svg\" width=\"200\">\n                    <p><span class=\"greenText\"><b>Successful harvest!</b></span><br>Your pay has increased by $0.02. Your bonus pay is now $0.52.</p>\n            ","response":0,"trial_type":"html-button-response","trial_index":18,"time_elapsed":73228,"internal_node_id":"0.0-4.0-1.5","subject_id":"5bc9e924e642db0001d3a1c5","study_id":"6197b3f67c2b5cd3b6d9596a","session_id":"619bef051da4e025cc38e05d","condition":"contingent","relevant_dimensions":["wings","pattern"],"bee_group":{"antennae":"X","wings":"2","pattern":"S","legs":"X"},"bonus":1.1200000000000006},{"rt":1429,"stimulus":"bees-with-color/bee-A2DM.svg","response":0,"trial_type":"image-button-response","trial_index":19,"time_elapsed":74658,"internal_node_id":"0.0-4.0-0.6","subject_id":"5bc9e924e642db0001d3a1c5","study_id":"6197b3f67c2b5cd3b6d9596a","session_id":"619bef051da4e025cc38e05d","condition":"contingent","relevant_dimensions":["wings","pattern"],"bee_group":{"antennae":"X","wings":"2","pattern":"S","legs":"X"},"action":"harvest","summary":"good-harvest","bonus":1.1200000000000006},{"rt":1145,"stimulus":"\n                    <p><b>Action: <em>harvest</em></b></p>\n                    <p>This is the bee that you just saw.</p>\n                    <img src=\"bees-with-color/bee-A2DM.svg\" width=\"200\">\n                    <p><span class=\"greenText\"><b>Successful harvest!</b></span><br>Your pay has increased by $0.02. Your bonus pay is now $0.54.</p>\n            ","response":0,"trial_type":"html-button-response","trial_index":20,"time_elapsed":75806,"internal_node_id":"0.0-4.0-1.6","subject_id":"5bc9e924e642db0001d3a1c5","study_id":"6197b3f67c2b5cd3b6d9596a","session_id":"619bef051da4e025cc38e05d","condition":"contingent","relevant_dimensions":["wings","pattern"],"bee_group":{"antennae":"X","wings":"2","pattern":"S","legs":"X"},"bonus":1.1200000000000006},{"rt":1464,"stimulus":"bees-with-color/bee-B2SM.svg","response":1,"trial_type":"image-button-response","trial_index":21,"time_elapsed":77272,"internal_node_id":"0.0-4.0-0.7","subject_id":"5bc9e924e642db0001d3a1c5","study_id":"6197b3f67c2b5cd3b6d9596a","session_id":"619bef051da4e025cc38e05d","condition":"contingent","relevant_dimensions":["wings","pattern"],"bee_group":{"antennae":"X","wings":"2","pattern":"S","legs":"X"},"action":"avoid","summary":"good-avoid","bonus":1.1200000000000006},{"rt":1464,"stimulus":"\n                    <p><b>Action: <em>avoid</em></b></p>\n                    <p>This is the bee that you just saw.</p>\n                    <img src=\"bees-with-color/bee-B2SM.svg\" width=\"200\">\n                    <p><br>Your bonus pay is unchanged, and remains at $0.54.</p>\n            ","response":0,"trial_type":"html-button-response","trial_index":22,"time_elapsed":78739,"internal_node_id":"0.0-4.0-1.7","subject_id":"5bc9e924e642db0001d3a1c5","study_id":"6197b3f67c2b5cd3b6d9596a","session_id":"619bef051da4e025cc38e05d","condition":"contingent","relevant_dimensions":["wings","pattern"],"bee_group":{"antennae":"X","wings":"2","pattern":"S","legs":"X"},"bonus":1.1200000000000006},{"rt":1208,"stimulus":"bees-with-color/bee-A1SM.svg","response":1,"trial_type":"image-button-response","trial_index":23,"time_elapsed":79948,"internal_node_id":"0.0-4.0-0.8","subject_id":"5bc9e924e642db0001d3a1c5","study_id":"6197b3f67c2b5cd3b6d9596a","session_id":"619bef051da4e025cc38e05d","condition":"contingent","relevant_dimensions":["wings","pattern"],"bee_group":{"antennae":"X","wings":"2","pattern":"S","legs":"X"},"action":"avoid","summary":"bad-avoid","bonus":1.1200000000000006},{"rt":1208,"stimulus":"\n                    <p><b>Action: <em>avoid</em></b></p>\n                    <p>This is the bee that you just saw.</p>\n                    <img src=\"bees-with-color/bee-A1SM.svg\" width=\"200\">\n                    <p><br>Your bonus pay is unchanged, and remains at $0.54.</p>\n            ","response":0,"trial_type":"html-button-response","trial_index":24,"time_elapsed":81158,"internal_node_id":"0.0-4.0-1.8","subject_id":"5bc9e924e642db0001d3a1c5","study_id":"6197b3f67c2b5cd3b6d9596a","session_id":"619bef051da4e025cc38e05d","condition":"contingent","relevant_dimensions":["wings","pattern"],"bee_group":{"antennae":"X","wings":"2","pattern":"S","legs":"X"},"bonus":1.1200000000000006},{"rt":1208,"stimulus":"bees-with-color/bee-B2DF.svg","response":0,"trial_type":"image-button-response","trial_index":25,"time_elapsed":82368,"internal_node_id":"0.0-4.0-0.9","subject_id":"5bc9e924e642db0001d3a1c5","study_id":"6197b3f67c2b5cd3b6d9596a","session_id":"619bef051da4e025cc38e05d","condition":"contingent","relevant_dimensions":["wings","pattern"],"bee_group":{"antennae":"X","wings":"2","pattern":"S","legs":"X"},"action":"harvest","summary":"good-harvest","bonus":1.1200000000000006},{"rt":1318,"stimulus":"\n                    <p><b>Action: <em>harvest</em></b></p>\n                    <p>This is the bee that you just saw.</p>\n                    <img src=\"bees-with-color/bee-B2DF.svg\" width=\"200\">\n                    <p><span class=\"greenText\"><b>Successful harvest!</b></span><br>Your pay has increased by $0.02. Your bonus pay is now $0.56.</p>\n            ","response":0,"trial_type":"html-button-response","trial_index":26,"time_elapsed":83689,"internal_node_id":"0.0-4.0-1.9","subject_id":"5bc9e924e642db0001d3a1c5","study_id":"6197b3f67c2b5cd3b6d9596a","session_id":"619bef051da4e025cc38e05d","condition":"contingent","relevant_dimensions":["wings","pattern"],"bee_group":{"antennae":"X","wings":"2","pattern":"S","legs":"X"},"bonus":1.1200000000000006},{"rt":963,"stimulus":"bees-with-color/bee-B2DM.svg","response":0,"trial_type":"image-button-response","trial_index":27,"time_elapsed":84654,"internal_node_id":"0.0-4.0-0.10","subject_id":"5bc9e924e642db0001d3a1c5","study_id":"6197b3f67c2b5cd3b6d9596a","session_id":"619bef051da4e025cc38e05d","condition":"contingent","relevant_dimensions":["wings","pattern"],"bee_group":{"antennae":"X","wings":"2","pattern":"S","legs":"X"},"action":"harvest","summary":"good-harvest","bonus":1.1200000000000006},{"rt":1122,"stimulus":"\n                    <p><b>Action: <em>harvest</em></b></p>\n                    <p>This is the bee that you just saw.</p>\n                    <img src=\"bees-with-color/bee-B2DM.svg\" width=\"200\">\n                    <p><span class=\"greenText\"><b>Successful harvest!</b></span><br>Your pay has increased by $0.02. Your bonus pay is now $0.58.</p>\n            ","response":0,"trial_type":"html-button-response","trial_index":28,"time_elapsed":85777,"internal_node_id":"0.0-4.0-1.10","subject_id":"5bc9e924e642db0001d3a1c5","study_id":"6197b3f67c2b5cd3b6d9596a","session_id":"619bef051da4e025cc38e05d","condition":"contingent","relevant_dimensions":["wings","pattern"],"bee_group":{"antennae":"X","wings":"2","pattern":"S","legs":"X"},"bonus":1.1200000000000006},{"rt":975,"stimulus":"bees-with-color/bee-B1SM.svg","response":1,"trial_type":"image-button-response","trial_index":29,"time_elapsed":86754,"internal_node_id":"0.0-4.0-0.11","subject_id":"5bc9e924e642db0001d3a1c5","study_id":"6197b3f67c2b5cd3b6d9596a","session_id":"619bef051da4e025cc38e05d","condition":"contingent","relevant_dimensions":["wings","pattern"],"bee_group":{"antennae":"X","wings":"2","pattern":"S","legs":"X"},"action":"avoid","summary":"bad-avoid","bonus":1.1200000000000006},{"rt":868,"stimulus":"\n                    <p><b>Action: <em>avoid</em></b></p>\n                    <p>This is the bee that you just saw.</p>\n                    <img src=\"bees-with-color/bee-B1SM.svg\" width=\"200\">\n                    <p><br>Your bonus pay is unchanged, and remains at $0.58.</p>\n            ","response":0,"trial_type":"html-button-response","trial_index":30,"time_elapsed":87624,"internal_node_id":"0.0-4.0-1.11","subject_id":"5bc9e924e642db0001d3a1c5","study_id":"6197b3f67c2b5cd3b6d9596a","session_id":"619bef051da4e025cc38e05d","condition":"contingent","relevant_dimensions":["wings","pattern"],"bee_group":{"antennae":"X","wings":"2","pattern":"S","legs":"X"},"bonus":1.1200000000000006},{"rt":1087,"stimulus":"bees-with-color/bee-B1DF.svg","response":0,"trial_type":"image-button-response","trial_index":31,"time_elapsed":88713,"internal_node_id":"0.0-4.0-0.12","subject_id":"5bc9e924e642db0001d3a1c5","study_id":"6197b3f67c2b5cd3b6d9596a","session_id":"619bef051da4e025cc38e05d","condition":"contingent","relevant_dimensions":["wings","pattern"],"bee_group":{"antennae":"X","wings":"2","pattern":"S","legs":"X"},"action":"harvest","summary":"good-harvest","bonus":1.1200000000000006},{"rt":1036,"stimulus":"\n                    <p><b>Action: <em>harvest</em></b></p>\n                    <p>This is the bee that you just saw.</p>\n                    <img src=\"bees-with-color/bee-B1DF.svg\" width=\"200\">\n                    <p><span class=\"greenText\"><b>Successful harvest!</b></span><br>Your pay has increased by $0.02. Your bonus pay is now $0.60.</p>\n            ","response":0,"trial_type":"html-button-response","trial_index":32,"time_elapsed":89751,"internal_node_id":"0.0-4.0-1.12","subject_id":"5bc9e924e642db0001d3a1c5","study_id":"6197b3f67c2b5cd3b6d9596a","session_id":"619bef051da4e025cc38e05d","condition":"contingent","relevant_dimensions":["wings","pattern"],"bee_group":{"antennae":"X","wings":"2","pattern":"S","legs":"X"},"bonus":1.1200000000000006},{"rt":1036,"stimulus":"bees-with-color/bee-A2SF.svg","response":1,"trial_type":"image-button-response","trial_index":33,"time_elapsed":90787,"internal_node_id":"0.0-4.0-0.13","subject_id":"5bc9e924e642db0001d3a1c5","study_id":"6197b3f67c2b5cd3b6d9596a","session_id":"619bef051da4e025cc38e05d","condition":"contingent","relevant_dimensions":["wings","pattern"],"bee_group":{"antennae":"X","wings":"2","pattern":"S","legs":"X"},"action":"avoid","summary":"good-avoid","bonus":1.1200000000000006},{"rt":1026,"stimulus":"\n                    <p><b>Action: <em>avoid</em></b></p>\n                    <p>This is the bee that you just saw.</p>\n                    <img src=\"bees-with-color/bee-A2SF.svg\" width=\"200\">\n                    <p><br>Your bonus pay is unchanged, and remains at $0.60.</p>\n            ","response":0,"trial_type":"html-button-response","trial_index":34,"time_elapsed":91814,"internal_node_id":"0.0-4.0-1.13","subject_id":"5bc9e924e642db0001d3a1c5","study_id":"6197b3f67c2b5cd3b6d9596a","session_id":"619bef051da4e025cc38e05d","condition":"contingent","relevant_dimensions":["wings","pattern"],"bee_group":{"antennae":"X","wings":"2","pattern":"S","legs":"X"},"bonus":1.1200000000000006},{"rt":867,"stimulus":"bees-with-color/bee-A2SM.svg","response":1,"trial_type":"image-button-response","trial_index":35,"time_elapsed":92682,"internal_node_id":"0.0-4.0-0.14","subject_id":"5bc9e924e642db0001d3a1c5","study_id":"6197b3f67c2b5cd3b6d9596a","session_id":"619bef051da4e025cc38e05d","condition":"contingent","relevant_dimensions":["wings","pattern"],"bee_group":{"antennae":"X","wings":"2","pattern":"S","legs":"X"},"action":"avoid","summary":"good-avoid","bonus":1.1200000000000006},{"rt":781,"stimulus":"\n                    <p><b>Action: <em>avoid</em></b></p>\n                    <p>This is the bee that you just saw.</p>\n                    <img src=\"bees-with-color/bee-A2SM.svg\" width=\"200\">\n                    <p><br>Your bonus pay is unchanged, and remains at $0.60.</p>\n            ","response":0,"trial_type":"html-button-response","trial_index":36,"time_elapsed":93464,"internal_node_id":"0.0-4.0-1.14","subject_id":"5bc9e924e642db0001d3a1c5","study_id":"6197b3f67c2b5cd3b6d9596a","session_id":"619bef051da4e025cc38e05d","condition":"contingent","relevant_dimensions":["wings","pattern"],"bee_group":{"antennae":"X","wings":"2","pattern":"S","legs":"X"},"bonus":1.1200000000000006},{"rt":841,"stimulus":"bees-with-color/bee-A1DM.svg","response":0,"trial_type":"image-button-response","trial_index":37,"time_elapsed":94308,"internal_node_id":"0.0-4.0-0.15","subject_id":"5bc9e924e642db0001d3a1c5","study_id":"6197b3f67c2b5cd3b6d9596a","session_id":"619bef051da4e025cc38e05d","condition":"contingent","relevant_dimensions":["wings","pattern"],"bee_group":{"antennae":"X","wings":"2","pattern":"S","legs":"X"},"action":"harvest","summary":"good-harvest","bonus":1.1200000000000006},{"rt":1391,"stimulus":"\n                    <p><b>Action: <em>harvest</em></b></p>\n                    <p>This is the bee that you just saw.</p>\n                    <img src=\"bees-with-color/bee-A1DM.svg\" width=\"200\">\n                    <p><span class=\"greenText\"><b>Successful harvest!</b></span><br>Your pay has increased by $0.02. Your bonus pay is now $0.62.</p>\n            ","response":0,"trial_type":"html-button-response","trial_index":38,"time_elapsed":95700,"internal_node_id":"0.0-4.0-1.15","subject_id":"5bc9e924e642db0001d3a1c5","study_id":"6197b3f67c2b5cd3b6d9596a","session_id":"619bef051da4e025cc38e05d","condition":"contingent","relevant_dimensions":["wings","pattern"],"bee_group":{"antennae":"X","wings":"2","pattern":"S","legs":"X"},"bonus":1.1200000000000006},{"rt":1624,"stimulus":"bees-with-color/bee-A2DM.svg","response":0,"trial_type":"image-button-response","trial_index":39,"time_elapsed":97325,"internal_node_id":"0.0-4.0-0.16","subject_id":"5bc9e924e642db0001d3a1c5","study_id":"6197b3f67c2b5cd3b6d9596a","session_id":"619bef051da4e025cc38e05d","condition":"contingent","relevant_dimensions":["wings","pattern"],"bee_group":{"antennae":"X","wings":"2","pattern":"S","legs":"X"},"action":"harvest","summary":"good-harvest","bonus":1.1200000000000006},{"rt":878,"stimulus":"\n                    <p><b>Action: <em>harvest</em></b></p>\n                    <p>This is the bee that you just saw.</p>\n                    <img src=\"bees-with-color/bee-A2DM.svg\" width=\"200\">\n                    <p><span class=\"greenText\"><b>Successful harvest!</b></span><br>Your pay has increased by $0.02. Your bonus pay is now $0.64.</p>\n            ","response":0,"trial_type":"html-button-response","trial_index":40,"time_elapsed":98206,"internal_node_id":"0.0-4.0-1.16","subject_id":"5bc9e924e642db0001d3a1c5","study_id":"6197b3f67c2b5cd3b6d9596a","session_id":"619bef051da4e025cc38e05d","condition":"contingent","relevant_dimensions":["wings","pattern"],"bee_group":{"antennae":"X","wings":"2","pattern":"S","legs":"X"},"bonus":1.1200000000000006},{"rt":891,"stimulus":"bees-with-color/bee-A1DF.svg","response":1,"trial_type":"image-button-response","trial_index":41,"time_elapsed":99098,"internal_node_id":"0.0-4.0-0.17","subject_id":"5bc9e924e642db0001d3a1c5","study_id":"6197b3f67c2b5cd3b6d9596a","session_id":"619bef051da4e025cc38e05d","condition":"contingent","relevant_dimensions":["wings","pattern"],"bee_group":{"antennae":"X","wings":"2","pattern":"S","legs":"X"},"action":"avoid","summary":"bad-avoid","bonus":1.1200000000000006},{"rt":1135,"stimulus":"\n                    <p><b>Action: <em>avoid</em></b></p>\n                    <p>This is the bee that you just saw.</p>\n                    <img src=\"bees-with-color/bee-A1DF.svg\" width=\"200\">\n                    <p><br>Your bonus pay is unchanged, and remains at $0.64.</p>\n            ","response":0,"trial_type":"html-button-response","trial_index":42,"time_elapsed":100234,"internal_node_id":"0.0-4.0-1.17","subject_id":"5bc9e924e642db0001d3a1c5","study_id":"6197b3f67c2b5cd3b6d9596a","session_id":"619bef051da4e025cc38e05d","condition":"contingent","relevant_dimensions":["wings","pattern"],"bee_group":{"antennae":"X","wings":"2","pattern":"S","legs":"X"},"bonus":1.1200000000000006},{"rt":1135,"stimulus":"bees-with-color/bee-B2DF.svg","response":0,"trial_type":"image-button-response","trial_index":43,"time_elapsed":101371,"internal_node_id":"0.0-4.0-0.18","subject_id":"5bc9e924e642db0001d3a1c5","study_id":"6197b3f67c2b5cd3b6d9596a","session_id":"619bef051da4e025cc38e05d","condition":"contingent","relevant_dimensions":["wings","pattern"],"bee_group":{"antennae":"X","wings":"2","pattern":"S","legs":"X"},"action":"harvest","summary":"good-harvest","bonus":1.1200000000000006},{"rt":1038,"stimulus":"\n                    <p><b>Action: <em>harvest</em></b></p>\n                    <p>This is the bee that you just saw.</p>\n                    <img src=\"bees-with-color/bee-B2DF.svg\" width=\"200\">\n                    <p><span class=\"greenText\"><b>Successful harvest!</b></span><br>Your pay has increased by $0.02. Your bonus pay is now $0.66.</p>\n            ","response":0,"trial_type":"html-button-response","trial_index":44,"time_elapsed":102409,"internal_node_id":"0.0-4.0-1.18","subject_id":"5bc9e924e642db0001d3a1c5","study_id":"6197b3f67c2b5cd3b6d9596a","session_id":"619bef051da4e025cc38e05d","condition":"contingent","relevant_dimensions":["wings","pattern"],"bee_group":{"antennae":"X","wings":"2","pattern":"S","legs":"X"},"bonus":1.1200000000000006},{"rt":1305,"stimulus":"bees-with-color/bee-B1DM.svg","response":0,"trial_type":"image-button-response","trial_index":45,"time_elapsed":103717,"internal_node_id":"0.0-4.0-0.19","subject_id":"5bc9e924e642db0001d3a1c5","study_id":"6197b3f67c2b5cd3b6d9596a","session_id":"619bef051da4e025cc38e05d","condition":"contingent","relevant_dimensions":["wings","pattern"],"bee_group":{"antennae":"X","wings":"2","pattern":"S","legs":"X"},"action":"harvest","summary":"good-harvest","bonus":1.1200000000000006},{"rt":952,"stimulus":"\n                    <p><b>Action: <em>harvest</em></b></p>\n                    <p>This is the bee that you just saw.</p>\n                    <img src=\"bees-with-color/bee-B1DM.svg\" width=\"200\">\n                    <p><span class=\"greenText\"><b>Successful harvest!</b></span><br>Your pay has increased by $0.02. Your bonus pay is now $0.68.</p>\n            ","response":0,"trial_type":"html-button-response","trial_index":46,"time_elapsed":104670,"internal_node_id":"0.0-4.0-1.19","subject_id":"5bc9e924e642db0001d3a1c5","study_id":"6197b3f67c2b5cd3b6d9596a","session_id":"619bef051da4e025cc38e05d","condition":"contingent","relevant_dimensions":["wings","pattern"],"bee_group":{"antennae":"X","wings":"2","pattern":"S","legs":"X"},"bonus":1.1200000000000006},{"rt":1185,"stimulus":"bees-with-color/bee-B1DF.svg","response":0,"trial_type":"image-button-response","trial_index":47,"time_elapsed":105856,"internal_node_id":"0.0-4.0-0.20","subject_id":"5bc9e924e642db0001d3a1c5","study_id":"6197b3f67c2b5cd3b6d9596a","session_id":"619bef051da4e025cc38e05d","condition":"contingent","relevant_dimensions":["wings","pattern"],"bee_group":{"antennae":"X","wings":"2","pattern":"S","legs":"X"},"action":"harvest","summary":"good-harvest","bonus":1.1200000000000006},{"rt":1011,"stimulus":"\n                    <p><b>Action: <em>harvest</em></b></p>\n                    <p>This is the bee that you just saw.</p>\n                    <img src=\"bees-with-color/bee-B1DF.svg\" width=\"200\">\n                    <p><span class=\"greenText\"><b>Successful harvest!</b></span><br>Your pay has increased by $0.02. Your bonus pay is now $0.70.</p>\n            ","response":0,"trial_type":"html-button-response","trial_index":48,"time_elapsed":106869,"internal_node_id":"0.0-4.0-1.20","subject_id":"5bc9e924e642db0001d3a1c5","study_id":"6197b3f67c2b5cd3b6d9596a","session_id":"619bef051da4e025cc38e05d","condition":"contingent","relevant_dimensions":["wings","pattern"],"bee_group":{"antennae":"X","wings":"2","pattern":"S","legs":"X"},"bonus":1.1200000000000006},{"rt":940,"stimulus":"bees-with-color/bee-A2SF.svg","response":1,"trial_type":"image-button-response","trial_index":49,"time_elapsed":107812,"internal_node_id":"0.0-4.0-0.21","subject_id":"5bc9e924e642db0001d3a1c5","study_id":"6197b3f67c2b5cd3b6d9596a","session_id":"619bef051da4e025cc38e05d","condition":"contingent","relevant_dimensions":["wings","pattern"],"bee_group":{"antennae":"X","wings":"2","pattern":"S","legs":"X"},"action":"avoid","summary":"good-avoid","bonus":1.1200000000000006},{"rt":926,"stimulus":"\n                    <p><b>Action: <em>avoid</em></b></p>\n                    <p>This is the bee that you just saw.</p>\n                    <img src=\"bees-with-color/bee-A2SF.svg\" width=\"200\">\n                    <p><br>Your bonus pay is unchanged, and remains at $0.70.</p>\n            ","response":0,"trial_type":"html-button-response","trial_index":50,"time_elapsed":108739,"internal_node_id":"0.0-4.0-1.21","subject_id":"5bc9e924e642db0001d3a1c5","study_id":"6197b3f67c2b5cd3b6d9596a","session_id":"619bef051da4e025cc38e05d","condition":"contingent","relevant_dimensions":["wings","pattern"],"bee_group":{"antennae":"X","wings":"2","pattern":"S","legs":"X"},"bonus":1.1200000000000006},{"rt":829,"stimulus":"bees-with-color/bee-A1DM.svg","response":0,"trial_type":"image-button-response","trial_index":51,"time_elapsed":109570,"internal_node_id":"0.0-4.0-0.22","subject_id":"5bc9e924e642db0001d3a1c5","study_id":"6197b3f67c2b5cd3b6d9596a","session_id":"619bef051da4e025cc38e05d","condition":"contingent","relevant_dimensions":["wings","pattern"],"bee_group":{"antennae":"X","wings":"2","pattern":"S","legs":"X"},"action":"harvest","summary":"good-harvest","bonus":1.1200000000000006},{"rt":1026,"stimulus":"\n                    <p><b>Action: <em>harvest</em></b></p>\n                    <p>This is the bee that you just saw.</p>\n                    <img src=\"bees-with-color/bee-A1DM.svg\" width=\"200\">\n                    <p><span class=\"greenText\"><b>Successful harvest!</b></span><br>Your pay has increased by $0.02. Your bonus pay is now $0.72.</p>\n            ","response":0,"trial_type":"html-button-response","trial_index":52,"time_elapsed":110598,"internal_node_id":"0.0-4.0-1.22","subject_id":"5bc9e924e642db0001d3a1c5","study_id":"6197b3f67c2b5cd3b6d9596a","session_id":"619bef051da4e025cc38e05d","condition":"contingent","relevant_dimensions":["wings","pattern"],"bee_group":{"antennae":"X","wings":"2","pattern":"S","legs":"X"},"bonus":1.1200000000000006},{"rt":1075,"stimulus":"bees-with-color/bee-A2SM.svg","response":1,"trial_type":"image-button-response","trial_index":53,"time_elapsed":111673,"internal_node_id":"0.0-4.0-0.23","subject_id":"5bc9e924e642db0001d3a1c5","study_id":"6197b3f67c2b5cd3b6d9596a","session_id":"619bef051da4e025cc38e05d","condition":"contingent","relevant_dimensions":["wings","pattern"],"bee_group":{"antennae":"X","wings":"2","pattern":"S","legs":"X"},"action":"avoid","summary":"good-avoid","bonus":1.1200000000000006},{"rt":1255,"stimulus":"\n                    <p><b>Action: <em>avoid</em></b></p>\n                    <p>This is the bee that you just saw.</p>\n                    <img src=\"bees-with-color/bee-A2SM.svg\" width=\"200\">\n                    <p><br>Your bonus pay is unchanged, and remains at $0.72.</p>\n            ","response":0,"trial_type":"html-button-response","trial_index":54,"time_elapsed":112932,"internal_node_id":"0.0-4.0-1.23","subject_id":"5bc9e924e642db0001d3a1c5","study_id":"6197b3f67c2b5cd3b6d9596a","session_id":"619bef051da4e025cc38e05d","condition":"contingent","relevant_dimensions":["wings","pattern"],"bee_group":{"antennae":"X","wings":"2","pattern":"S","legs":"X"},"bonus":1.1200000000000006},{"rt":1268,"stimulus":"bees-with-color/bee-B1SF.svg","response":1,"trial_type":"image-button-response","trial_index":55,"time_elapsed":114203,"internal_node_id":"0.0-4.0-0.24","subject_id":"5bc9e924e642db0001d3a1c5","study_id":"6197b3f67c2b5cd3b6d9596a","session_id":"619bef051da4e025cc38e05d","condition":"contingent","relevant_dimensions":["wings","pattern"],"bee_group":{"antennae":"X","wings":"2","pattern":"S","legs":"X"},"action":"avoid","summary":"bad-avoid","bonus":1.1200000000000006},{"rt":975,"stimulus":"\n                    <p><b>Action: <em>avoid</em></b></p>\n                    <p>This is the bee that you just saw.</p>\n                    <img src=\"bees-with-color/bee-B1SF.svg\" width=\"200\">\n                    <p><br>Your bonus pay is unchanged, and remains at $0.72.</p>\n            ","response":0,"trial_type":"html-button-response","trial_index":56,"time_elapsed":115180,"internal_node_id":"0.0-4.0-1.24","subject_id":"5bc9e924e642db0001d3a1c5","study_id":"6197b3f67c2b5cd3b6d9596a","session_id":"619bef051da4e025cc38e05d","condition":"contingent","relevant_dimensions":["wings","pattern"],"bee_group":{"antennae":"X","wings":"2","pattern":"S","legs":"X"},"bonus":1.1200000000000006},{"rt":939,"stimulus":"bees-with-color/bee-A2DF.svg","response":0,"trial_type":"image-button-response","trial_index":57,"time_elapsed":116122,"internal_node_id":"0.0-4.0-0.25","subject_id":"5bc9e924e642db0001d3a1c5","study_id":"6197b3f67c2b5cd3b6d9596a","session_id":"619bef051da4e025cc38e05d","condition":"contingent","relevant_dimensions":["wings","pattern"],"bee_group":{"antennae":"X","wings":"2","pattern":"S","legs":"X"},"action":"harvest","summary":"good-harvest","bonus":1.1200000000000006},{"rt":1220,"stimulus":"\n                    <p><b>Action: <em>harvest</em></b></p>\n                    <p>This is the bee that you just saw.</p>\n                    <img src=\"bees-with-color/bee-A2DF.svg\" width=\"200\">\n                    <p><span class=\"greenText\"><b>Successful harvest!</b></span><br>Your pay has increased by $0.02. Your bonus pay is now $0.74.</p>\n            ","response":0,"trial_type":"html-button-response","trial_index":58,"time_elapsed":117345,"internal_node_id":"0.0-4.0-1.25","subject_id":"5bc9e924e642db0001d3a1c5","study_id":"6197b3f67c2b5cd3b6d9596a","session_id":"619bef051da4e025cc38e05d","condition":"contingent","relevant_dimensions":["wings","pattern"],"bee_group":{"antennae":"X","wings":"2","pattern":"S","legs":"X"},"bonus":1.1200000000000006},{"rt":2075,"stimulus":"bees-with-color/bee-B2DM.svg","response":0,"trial_type":"image-button-response","trial_index":59,"time_elapsed":119422,"internal_node_id":"0.0-4.0-0.26","subject_id":"5bc9e924e642db0001d3a1c5","study_id":"6197b3f67c2b5cd3b6d9596a","session_id":"619bef051da4e025cc38e05d","condition":"contingent","relevant_dimensions":["wings","pattern"],"bee_group":{"antennae":"X","wings":"2","pattern":"S","legs":"X"},"action":"harvest","summary":"good-harvest","bonus":1.1200000000000006},{"rt":1193,"stimulus":"\n                    <p><b>Action: <em>harvest</em></b></p>\n                    <p>This is the bee that you just saw.</p>\n                    <img src=\"bees-with-color/bee-B2DM.svg\" width=\"200\">\n                    <p><span class=\"greenText\"><b>Successful harvest!</b></span><br>Your pay has increased by $0.02. Your bonus pay is now $0.76.</p>\n            ","response":0,"trial_type":"html-button-response","trial_index":60,"time_elapsed":120618,"internal_node_id":"0.0-4.0-1.26","subject_id":"5bc9e924e642db0001d3a1c5","study_id":"6197b3f67c2b5cd3b6d9596a","session_id":"619bef051da4e025cc38e05d","condition":"contingent","relevant_dimensions":["wings","pattern"],"bee_group":{"antennae":"X","wings":"2","pattern":"S","legs":"X"},"bonus":1.1200000000000006},{"rt":1036,"stimulus":"bees-with-color/bee-B1SM.svg","response":1,"trial_type":"image-button-response","trial_index":61,"time_elapsed":121657,"internal_node_id":"0.0-4.0-0.27","subject_id":"5bc9e924e642db0001d3a1c5","study_id":"6197b3f67c2b5cd3b6d9596a","session_id":"619bef051da4e025cc38e05d","condition":"contingent","relevant_dimensions":["wings","pattern"],"bee_group":{"antennae":"X","wings":"2","pattern":"S","legs":"X"},"action":"avoid","summary":"bad-avoid","bonus":1.1200000000000006},{"rt":1074,"stimulus":"\n                    <p><b>Action: <em>avoid</em></b></p>\n                    <p>This is the bee that you just saw.</p>\n                    <img src=\"bees-with-color/bee-B1SM.svg\" width=\"200\">\n                    <p><br>Your bonus pay is unchanged, and remains at $0.76.</p>\n            ","response":0,"trial_type":"html-button-response","trial_index":62,"time_elapsed":122733,"internal_node_id":"0.0-4.0-1.27","subject_id":"5bc9e924e642db0001d3a1c5","study_id":"6197b3f67c2b5cd3b6d9596a","session_id":"619bef051da4e025cc38e05d","condition":"contingent","relevant_dimensions":["wings","pattern"],"bee_group":{"antennae":"X","wings":"2","pattern":"S","legs":"X"},"bonus":1.1200000000000006},{"rt":1378,"stimulus":"bees-with-color/bee-A1SM.svg","response":1,"trial_type":"image-button-response","trial_index":63,"time_elapsed":124114,"internal_node_id":"0.0-4.0-0.28","subject_id":"5bc9e924e642db0001d3a1c5","study_id":"6197b3f67c2b5cd3b6d9596a","session_id":"619bef051da4e025cc38e05d","condition":"contingent","relevant_dimensions":["wings","pattern"],"bee_group":{"antennae":"X","wings":"2","pattern":"S","legs":"X"},"action":"avoid","summary":"bad-avoid","bonus":1.1200000000000006},{"rt":976,"stimulus":"\n                    <p><b>Action: <em>avoid</em></b></p>\n                    <p>This is the bee that you just saw.</p>\n                    <img src=\"bees-with-color/bee-A1SM.svg\" width=\"200\">\n                    <p><br>Your bonus pay is unchanged, and remains at $0.76.</p>\n            ","response":0,"trial_type":"html-button-response","trial_index":64,"time_elapsed":125092,"internal_node_id":"0.0-4.0-1.28","subject_id":"5bc9e924e642db0001d3a1c5","study_id":"6197b3f67c2b5cd3b6d9596a","session_id":"619bef051da4e025cc38e05d","condition":"contingent","relevant_dimensions":["wings","pattern"],"bee_group":{"antennae":"X","wings":"2","pattern":"S","legs":"X"},"bonus":1.1200000000000006},{"rt":939,"stimulus":"bees-with-color/bee-A1SF.svg","response":1,"trial_type":"image-button-response","trial_index":65,"time_elapsed":126033,"internal_node_id":"0.0-4.0-0.29","subject_id":"5bc9e924e642db0001d3a1c5","study_id":"6197b3f67c2b5cd3b6d9596a","session_id":"619bef051da4e025cc38e05d","condition":"contingent","relevant_dimensions":["wings","pattern"],"bee_group":{"antennae":"X","wings":"2","pattern":"S","legs":"X"},"action":"avoid","summary":"bad-avoid","bonus":1.1200000000000006},{"rt":901,"stimulus":"\n                    <p><b>Action: <em>avoid</em></b></p>\n                    <p>This is the bee that you just saw.</p>\n                    <img src=\"bees-with-color/bee-A1SF.svg\" width=\"200\">\n                    <p><br>Your bonus pay is unchanged, and remains at $0.76.</p>\n            ","response":0,"trial_type":"html-button-response","trial_index":66,"time_elapsed":126937,"internal_node_id":"0.0-4.0-1.29","subject_id":"5bc9e924e642db0001d3a1c5","study_id":"6197b3f67c2b5cd3b6d9596a","session_id":"619bef051da4e025cc38e05d","condition":"contingent","relevant_dimensions":["wings","pattern"],"bee_group":{"antennae":"X","wings":"2","pattern":"S","legs":"X"},"bonus":1.1200000000000006},{"rt":1612,"stimulus":"bees-with-color/bee-B2SF.svg","response":1,"trial_type":"image-button-response","trial_index":67,"time_elapsed":128550,"internal_node_id":"0.0-4.0-0.30","subject_id":"5bc9e924e642db0001d3a1c5","study_id":"6197b3f67c2b5cd3b6d9596a","session_id":"619bef051da4e025cc38e05d","condition":"contingent","relevant_dimensions":["wings","pattern"],"bee_group":{"antennae":"X","wings":"2","pattern":"S","legs":"X"},"action":"avoid","summary":"good-avoid","bonus":1.1200000000000006},{"rt":1283,"stimulus":"\n                    <p><b>Action: <em>avoid</em></b></p>\n                    <p>This is the bee that you just saw.</p>\n                    <img src=\"bees-with-color/bee-B2SF.svg\" width=\"200\">\n                    <p><br>Your bonus pay is unchanged, and remains at $0.76.</p>\n            ","response":0,"trial_type":"html-button-response","trial_index":68,"time_elapsed":129834,"internal_node_id":"0.0-4.0-1.30","subject_id":"5bc9e924e642db0001d3a1c5","study_id":"6197b3f67c2b5cd3b6d9596a","session_id":"619bef051da4e025cc38e05d","condition":"contingent","relevant_dimensions":["wings","pattern"],"bee_group":{"antennae":"X","wings":"2","pattern":"S","legs":"X"},"bonus":1.1200000000000006},{"rt":1000,"stimulus":"bees-with-color/bee-B2SM.svg","response":1,"trial_type":"image-button-response","trial_index":69,"time_elapsed":130836,"internal_node_id":"0.0-4.0-0.31","subject_id":"5bc9e924e642db0001d3a1c5","study_id":"6197b3f67c2b5cd3b6d9596a","session_id":"619bef051da4e025cc38e05d","condition":"contingent","relevant_dimensions":["wings","pattern"],"bee_group":{"antennae":"X","wings":"2","pattern":"S","legs":"X"},"action":"avoid","summary":"good-avoid","bonus":1.1200000000000006},{"rt":914,"stimulus":"\n                    <p><b>Action: <em>avoid</em></b></p>\n                    <p>This is the bee that you just saw.</p>\n                    <img src=\"bees-with-color/bee-B2SM.svg\" width=\"200\">\n                    <p><br>Your bonus pay is unchanged, and remains at $0.76.</p>\n            ","response":0,"trial_type":"html-button-response","trial_index":70,"time_elapsed":131752,"internal_node_id":"0.0-4.0-1.31","subject_id":"5bc9e924e642db0001d3a1c5","study_id":"6197b3f67c2b5cd3b6d9596a","session_id":"619bef051da4e025cc38e05d","condition":"contingent","relevant_dimensions":["wings","pattern"],"bee_group":{"antennae":"X","wings":"2","pattern":"S","legs":"X"},"bonus":1.1200000000000006},{"rt":976,"stimulus":"bees-with-color/bee-A1DF.svg","response":0,"trial_type":"image-button-response","trial_index":71,"time_elapsed":132730,"internal_node_id":"0.0-4.0-0.32","subject_id":"5bc9e924e642db0001d3a1c5","study_id":"6197b3f67c2b5cd3b6d9596a","session_id":"619bef051da4e025cc38e05d","condition":"contingent","relevant_dimensions":["wings","pattern"],"bee_group":{"antennae":"X","wings":"2","pattern":"S","legs":"X"},"action":"harvest","summary":"good-harvest","bonus":1.1200000000000006},{"rt":1037,"stimulus":"\n                    <p><b>Action: <em>harvest</em></b></p>\n                    <p>This is the bee that you just saw.</p>\n                    <img src=\"bees-with-color/bee-A1DF.svg\" width=\"200\">\n                    <p><span class=\"greenText\"><b>Successful harvest!</b></span><br>Your pay has increased by $0.02. Your bonus pay is now $0.78.</p>\n            ","response":0,"trial_type":"html-button-response","trial_index":72,"time_elapsed":133770,"internal_node_id":"0.0-4.0-1.32","subject_id":"5bc9e924e642db0001d3a1c5","study_id":"6197b3f67c2b5cd3b6d9596a","session_id":"619bef051da4e025cc38e05d","condition":"contingent","relevant_dimensions":["wings","pattern"],"bee_group":{"antennae":"X","wings":"2","pattern":"S","legs":"X"},"bonus":1.1200000000000006},{"rt":1135,"stimulus":"bees-with-color/bee-B2SM.svg","response":1,"trial_type":"image-button-response","trial_index":73,"time_elapsed":134906,"internal_node_id":"0.0-4.0-0.33","subject_id":"5bc9e924e642db0001d3a1c5","study_id":"6197b3f67c2b5cd3b6d9596a","session_id":"619bef051da4e025cc38e05d","condition":"contingent","relevant_dimensions":["wings","pattern"],"bee_group":{"antennae":"X","wings":"2","pattern":"S","legs":"X"},"action":"avoid","summary":"good-avoid","bonus":1.1200000000000006},{"rt":841,"stimulus":"\n                    <p><b>Action: <em>avoid</em></b></p>\n                    <p>This is the bee that you just saw.</p>\n                    <img src=\"bees-with-color/bee-B2SM.svg\" width=\"200\">\n                    <p><br>Your bonus pay is unchanged, and remains at $0.78.</p>\n            ","response":0,"trial_type":"html-button-response","trial_index":74,"time_elapsed":135750,"internal_node_id":"0.0-4.0-1.33","subject_id":"5bc9e924e642db0001d3a1c5","study_id":"6197b3f67c2b5cd3b6d9596a","session_id":"619bef051da4e025cc38e05d","condition":"contingent","relevant_dimensions":["wings","pattern"],"bee_group":{"antennae":"X","wings":"2","pattern":"S","legs":"X"},"bonus":1.1200000000000006},{"rt":965,"stimulus":"bees-with-color/bee-B1DM.svg","response":0,"trial_type":"image-button-response","trial_index":75,"time_elapsed":136716,"internal_node_id":"0.0-4.0-0.34","subject_id":"5bc9e924e642db0001d3a1c5","study_id":"6197b3f67c2b5cd3b6d9596a","session_id":"619bef051da4e025cc38e05d","condition":"contingent","relevant_dimensions":["wings","pattern"],"bee_group":{"antennae":"X","wings":"2","pattern":"S","legs":"X"},"action":"harvest","summary":"good-harvest","bonus":1.1200000000000006},{"rt":1206,"stimulus":"\n                    <p><b>Action: <em>harvest</em></b></p>\n                    <p>This is the bee that you just saw.</p>\n                    <img src=\"bees-with-color/bee-B1DM.svg\" width=\"200\">\n                    <p><span class=\"greenText\"><b>Successful harvest!</b></span><br>Your pay has increased by $0.02. Your bonus pay is now $0.80.</p>\n            ","response":0,"trial_type":"html-button-response","trial_index":76,"time_elapsed":137924,"internal_node_id":"0.0-4.0-1.34","subject_id":"5bc9e924e642db0001d3a1c5","study_id":"6197b3f67c2b5cd3b6d9596a","session_id":"619bef051da4e025cc38e05d","condition":"contingent","relevant_dimensions":["wings","pattern"],"bee_group":{"antennae":"X","wings":"2","pattern":"S","legs":"X"},"bonus":1.1200000000000006},{"rt":1381,"stimulus":"bees-with-color/bee-B1SM.svg","response":1,"trial_type":"image-button-response","trial_index":77,"time_elapsed":139306,"internal_node_id":"0.0-4.0-0.35","subject_id":"5bc9e924e642db0001d3a1c5","study_id":"6197b3f67c2b5cd3b6d9596a","session_id":"619bef051da4e025cc38e05d","condition":"contingent","relevant_dimensions":["wings","pattern"],"bee_group":{"antennae":"X","wings":"2","pattern":"S","legs":"X"},"action":"avoid","summary":"bad-avoid","bonus":1.1200000000000006},{"rt":866,"stimulus":"\n                    <p><b>Action: <em>avoid</em></b></p>\n                    <p>This is the bee that you just saw.</p>\n                    <img src=\"bees-with-color/bee-B1SM.svg\" width=\"200\">\n                    <p><br>Your bonus pay is unchanged, and remains at $0.80.</p>\n            ","response":0,"trial_type":"html-button-response","trial_index":78,"time_elapsed":140174,"internal_node_id":"0.0-4.0-1.35","subject_id":"5bc9e924e642db0001d3a1c5","study_id":"6197b3f67c2b5cd3b6d9596a","session_id":"619bef051da4e025cc38e05d","condition":"contingent","relevant_dimensions":["wings","pattern"],"bee_group":{"antennae":"X","wings":"2","pattern":"S","legs":"X"},"bonus":1.1200000000000006},{"rt":928,"stimulus":"bees-with-color/bee-A2DF.svg","response":0,"trial_type":"image-button-response","trial_index":79,"time_elapsed":141103,"internal_node_id":"0.0-4.0-0.36","subject_id":"5bc9e924e642db0001d3a1c5","study_id":"6197b3f67c2b5cd3b6d9596a","session_id":"619bef051da4e025cc38e05d","condition":"contingent","relevant_dimensions":["wings","pattern"],"bee_group":{"antennae":"X","wings":"2","pattern":"S","legs":"X"},"action":"harvest","summary":"good-harvest","bonus":1.1200000000000006},{"rt":963,"stimulus":"\n                    <p><b>Action: <em>harvest</em></b></p>\n                    <p>This is the bee that you just saw.</p>\n                    <img src=\"bees-with-color/bee-A2DF.svg\" width=\"200\">\n                    <p><span class=\"greenText\"><b>Successful harvest!</b></span><br>Your pay has increased by $0.02. Your bonus pay is now $0.82.</p>\n            ","response":0,"trial_type":"html-button-response","trial_index":80,"time_elapsed":142068,"internal_node_id":"0.0-4.0-1.36","subject_id":"5bc9e924e642db0001d3a1c5","study_id":"6197b3f67c2b5cd3b6d9596a","session_id":"619bef051da4e025cc38e05d","condition":"contingent","relevant_dimensions":["wings","pattern"],"bee_group":{"antennae":"X","wings":"2","pattern":"S","legs":"X"},"bonus":1.1200000000000006},{"rt":781,"stimulus":"bees-with-color/bee-A1SF.svg","response":1,"trial_type":"image-button-response","trial_index":81,"time_elapsed":142851,"internal_node_id":"0.0-4.0-0.37","subject_id":"5bc9e924e642db0001d3a1c5","study_id":"6197b3f67c2b5cd3b6d9596a","session_id":"619bef051da4e025cc38e05d","condition":"contingent","relevant_dimensions":["wings","pattern"],"bee_group":{"antennae":"X","wings":"2","pattern":"S","legs":"X"},"action":"avoid","summary":"bad-avoid","bonus":1.1200000000000006},{"rt":793,"stimulus":"\n                    <p><b>Action: <em>avoid</em></b></p>\n                    <p>This is the bee that you just saw.</p>\n                    <img src=\"bees-with-color/bee-A1SF.svg\" width=\"200\">\n                    <p><br>Your bonus pay is unchanged, and remains at $0.82.</p>\n            ","response":0,"trial_type":"html-button-response","trial_index":82,"time_elapsed":143645,"internal_node_id":"0.0-4.0-1.37","subject_id":"5bc9e924e642db0001d3a1c5","study_id":"6197b3f67c2b5cd3b6d9596a","session_id":"619bef051da4e025cc38e05d","condition":"contingent","relevant_dimensions":["wings","pattern"],"bee_group":{"antennae":"X","wings":"2","pattern":"S","legs":"X"},"bonus":1.1200000000000006},{"rt":879,"stimulus":"bees-with-color/bee-B1SF.svg","response":1,"trial_type":"image-button-response","trial_index":83,"time_elapsed":144526,"internal_node_id":"0.0-4.0-0.38","subject_id":"5bc9e924e642db0001d3a1c5","study_id":"6197b3f67c2b5cd3b6d9596a","session_id":"619bef051da4e025cc38e05d","condition":"contingent","relevant_dimensions":["wings","pattern"],"bee_group":{"antennae":"X","wings":"2","pattern":"S","legs":"X"},"action":"avoid","summary":"bad-avoid","bonus":1.1200000000000006},{"rt":695,"stimulus":"\n                    <p><b>Action: <em>avoid</em></b></p>\n                    <p>This is the bee that you just saw.</p>\n                    <img src=\"bees-with-color/bee-B1SF.svg\" width=\"200\">\n                    <p><br>Your bonus pay is unchanged, and remains at $0.82.</p>\n            ","response":0,"trial_type":"html-button-response","trial_index":84,"time_elapsed":145222,"internal_node_id":"0.0-4.0-1.38","subject_id":"5bc9e924e642db0001d3a1c5","study_id":"6197b3f67c2b5cd3b6d9596a","session_id":"619bef051da4e025cc38e05d","condition":"contingent","relevant_dimensions":["wings","pattern"],"bee_group":{"antennae":"X","wings":"2","pattern":"S","legs":"X"},"bonus":1.1200000000000006},{"rt":865,"stimulus":"bees-with-color/bee-B2SF.svg","response":1,"trial_type":"image-button-response","trial_index":85,"time_elapsed":146089,"internal_node_id":"0.0-4.0-0.39","subject_id":"5bc9e924e642db0001d3a1c5","study_id":"6197b3f67c2b5cd3b6d9596a","session_id":"619bef051da4e025cc38e05d","condition":"contingent","relevant_dimensions":["wings","pattern"],"bee_group":{"antennae":"X","wings":"2","pattern":"S","legs":"X"},"action":"avoid","summary":"good-avoid","bonus":1.1200000000000006},{"rt":1049,"stimulus":"\n                    <p><b>Action: <em>avoid</em></b></p>\n                    <p>This is the bee that you just saw.</p>\n                    <img src=\"bees-with-color/bee-B2SF.svg\" width=\"200\">\n                    <p><br>Your bonus pay is unchanged, and remains at $0.82.</p>\n            ","response":0,"trial_type":"html-button-response","trial_index":86,"time_elapsed":147140,"internal_node_id":"0.0-4.0-1.39","subject_id":"5bc9e924e642db0001d3a1c5","study_id":"6197b3f67c2b5cd3b6d9596a","session_id":"619bef051da4e025cc38e05d","condition":"contingent","relevant_dimensions":["wings","pattern"],"bee_group":{"antennae":"X","wings":"2","pattern":"S","legs":"X"},"bonus":1.1200000000000006},{"rt":966,"stimulus":"bees-with-color/bee-A2SF.svg","response":1,"trial_type":"image-button-response","trial_index":87,"time_elapsed":148106,"internal_node_id":"0.0-4.0-0.40","subject_id":"5bc9e924e642db0001d3a1c5","study_id":"6197b3f67c2b5cd3b6d9596a","session_id":"619bef051da4e025cc38e05d","condition":"contingent","relevant_dimensions":["wings","pattern"],"bee_group":{"antennae":"X","wings":"2","pattern":"S","legs":"X"},"action":"avoid","summary":"good-avoid","bonus":1.1200000000000006},{"rt":852,"stimulus":"\n                    <p><b>Action: <em>avoid</em></b></p>\n                    <p>This is the bee that you just saw.</p>\n                    <img src=\"bees-with-color/bee-A2SF.svg\" width=\"200\">\n                    <p><br>Your bonus pay is unchanged, and remains at $0.82.</p>\n            ","response":0,"trial_type":"html-button-response","trial_index":88,"time_elapsed":148961,"internal_node_id":"0.0-4.0-1.40","subject_id":"5bc9e924e642db0001d3a1c5","study_id":"6197b3f67c2b5cd3b6d9596a","session_id":"619bef051da4e025cc38e05d","condition":"contingent","relevant_dimensions":["wings","pattern"],"bee_group":{"antennae":"X","wings":"2","pattern":"S","legs":"X"},"bonus":1.1200000000000006},{"rt":1050,"stimulus":"bees-with-color/bee-B2DM.svg","response":0,"trial_type":"image-button-response","trial_index":89,"time_elapsed":150013,"internal_node_id":"0.0-4.0-0.41","subject_id":"5bc9e924e642db0001d3a1c5","study_id":"6197b3f67c2b5cd3b6d9596a","session_id":"619bef051da4e025cc38e05d","condition":"contingent","relevant_dimensions":["wings","pattern"],"bee_group":{"antennae":"X","wings":"2","pattern":"S","legs":"X"},"action":"harvest","summary":"good-harvest","bonus":1.1200000000000006},{"rt":890,"stimulus":"\n                    <p><b>Action: <em>harvest</em></b></p>\n                    <p>This is the bee that you just saw.</p>\n                    <img src=\"bees-with-color/bee-B2DM.svg\" width=\"200\">\n                    <p><span class=\"greenText\"><b>Successful harvest!</b></span><br>Your pay has increased by $0.02. Your bonus pay is now $0.84.</p>\n            ","response":0,"trial_type":"html-button-response","trial_index":90,"time_elapsed":150905,"internal_node_id":"0.0-4.0-1.41","subject_id":"5bc9e924e642db0001d3a1c5","study_id":"6197b3f67c2b5cd3b6d9596a","session_id":"619bef051da4e025cc38e05d","condition":"contingent","relevant_dimensions":["wings","pattern"],"bee_group":{"antennae":"X","wings":"2","pattern":"S","legs":"X"},"bonus":1.1200000000000006},{"rt":964,"stimulus":"bees-with-color/bee-B1DF.svg","response":0,"trial_type":"image-button-response","trial_index":91,"time_elapsed":151871,"internal_node_id":"0.0-4.0-0.42","subject_id":"5bc9e924e642db0001d3a1c5","study_id":"6197b3f67c2b5cd3b6d9596a","session_id":"619bef051da4e025cc38e05d","condition":"contingent","relevant_dimensions":["wings","pattern"],"bee_group":{"antennae":"X","wings":"2","pattern":"S","legs":"X"},"action":"harvest","summary":"good-harvest","bonus":1.1200000000000006},{"rt":943,"stimulus":"\n                    <p><b>Action: <em>harvest</em></b></p>\n                    <p>This is the bee that you just saw.</p>\n                    <img src=\"bees-with-color/bee-B1DF.svg\" width=\"200\">\n                    <p><span class=\"greenText\"><b>Successful harvest!</b></span><br>Your pay has increased by $0.02. Your bonus pay is now $0.86.</p>\n            ","response":0,"trial_type":"html-button-response","trial_index":92,"time_elapsed":152816,"internal_node_id":"0.0-4.0-1.42","subject_id":"5bc9e924e642db0001d3a1c5","study_id":"6197b3f67c2b5cd3b6d9596a","session_id":"619bef051da4e025cc38e05d","condition":"contingent","relevant_dimensions":["wings","pattern"],"bee_group":{"antennae":"X","wings":"2","pattern":"S","legs":"X"},"bonus":1.1200000000000006},{"rt":985,"stimulus":"bees-with-color/bee-B2DF.svg","response":0,"trial_type":"image-button-response","trial_index":93,"time_elapsed":153802,"internal_node_id":"0.0-4.0-0.43","subject_id":"5bc9e924e642db0001d3a1c5","study_id":"6197b3f67c2b5cd3b6d9596a","session_id":"619bef051da4e025cc38e05d","condition":"contingent","relevant_dimensions":["wings","pattern"],"bee_group":{"antennae":"X","wings":"2","pattern":"S","legs":"X"},"action":"harvest","summary":"good-harvest","bonus":1.1200000000000006},{"rt":1367,"stimulus":"\n                    <p><b>Action: <em>harvest</em></b></p>\n                    <p>This is the bee that you just saw.</p>\n                    <img src=\"bees-with-color/bee-B2DF.svg\" width=\"200\">\n                    <p><span class=\"greenText\"><b>Successful harvest!</b></span><br>Your pay has increased by $0.02. Your bonus pay is now $0.88.</p>\n            ","response":0,"trial_type":"html-button-response","trial_index":94,"time_elapsed":155171,"internal_node_id":"0.0-4.0-1.43","subject_id":"5bc9e924e642db0001d3a1c5","study_id":"6197b3f67c2b5cd3b6d9596a","session_id":"619bef051da4e025cc38e05d","condition":"contingent","relevant_dimensions":["wings","pattern"],"bee_group":{"antennae":"X","wings":"2","pattern":"S","legs":"X"},"bonus":1.1200000000000006},{"rt":1013,"stimulus":"bees-with-color/bee-A1DM.svg","response":0,"trial_type":"image-button-response","trial_index":95,"time_elapsed":156185,"internal_node_id":"0.0-4.0-0.44","subject_id":"5bc9e924e642db0001d3a1c5","study_id":"6197b3f67c2b5cd3b6d9596a","session_id":"619bef051da4e025cc38e05d","condition":"contingent","relevant_dimensions":["wings","pattern"],"bee_group":{"antennae":"X","wings":"2","pattern":"S","legs":"X"},"action":"harvest","summary":"good-harvest","bonus":1.1200000000000006},{"rt":915,"stimulus":"\n                    <p><b>Action: <em>harvest</em></b></p>\n                    <p>This is the bee that you just saw.</p>\n                    <img src=\"bees-with-color/bee-A1DM.svg\" width=\"200\">\n                    <p><span class=\"greenText\"><b>Successful harvest!</b></span><br>Your pay has increased by $0.02. Your bonus pay is now $0.90.</p>\n            ","response":0,"trial_type":"html-button-response","trial_index":96,"time_elapsed":157102,"internal_node_id":"0.0-4.0-1.44","subject_id":"5bc9e924e642db0001d3a1c5","study_id":"6197b3f67c2b5cd3b6d9596a","session_id":"619bef051da4e025cc38e05d","condition":"contingent","relevant_dimensions":["wings","pattern"],"bee_group":{"antennae":"X","wings":"2","pattern":"S","legs":"X"},"bonus":1.1200000000000006},{"rt":928,"stimulus":"bees-with-color/bee-A2DM.svg","response":0,"trial_type":"image-button-response","trial_index":97,"time_elapsed":158031,"internal_node_id":"0.0-4.0-0.45","subject_id":"5bc9e924e642db0001d3a1c5","study_id":"6197b3f67c2b5cd3b6d9596a","session_id":"619bef051da4e025cc38e05d","condition":"contingent","relevant_dimensions":["wings","pattern"],"bee_group":{"antennae":"X","wings":"2","pattern":"S","legs":"X"},"action":"harvest","summary":"good-harvest","bonus":1.1200000000000006},{"rt":828,"stimulus":"\n                    <p><b>Action: <em>harvest</em></b></p>\n                    <p>This is the bee that you just saw.</p>\n                    <img src=\"bees-with-color/bee-A2DM.svg\" width=\"200\">\n                    <p><span class=\"greenText\"><b>Successful harvest!</b></span><br>Your pay has increased by $0.02. Your bonus pay is now $0.92.</p>\n            ","response":0,"trial_type":"html-button-response","trial_index":98,"time_elapsed":158862,"internal_node_id":"0.0-4.0-1.45","subject_id":"5bc9e924e642db0001d3a1c5","study_id":"6197b3f67c2b5cd3b6d9596a","session_id":"619bef051da4e025cc38e05d","condition":"contingent","relevant_dimensions":["wings","pattern"],"bee_group":{"antennae":"X","wings":"2","pattern":"S","legs":"X"},"bonus":1.1200000000000006},{"rt":1234,"stimulus":"bees-with-color/bee-A2SM.svg","response":1,"trial_type":"image-button-response","trial_index":99,"time_elapsed":160097,"internal_node_id":"0.0-4.0-0.46","subject_id":"5bc9e924e642db0001d3a1c5","study_id":"6197b3f67c2b5cd3b6d9596a","session_id":"619bef051da4e025cc38e05d","condition":"contingent","relevant_dimensions":["wings","pattern"],"bee_group":{"antennae":"X","wings":"2","pattern":"S","legs":"X"},"action":"avoid","summary":"good-avoid","bonus":1.1200000000000006},{"rt":853,"stimulus":"\n                    <p><b>Action: <em>avoid</em></b></p>\n                    <p>This is the bee that you just saw.</p>\n                    <img src=\"bees-with-color/bee-A2SM.svg\" width=\"200\">\n                    <p><br>Your bonus pay is unchanged, and remains at $0.92.</p>\n            ","response":0,"trial_type":"html-button-response","trial_index":100,"time_elapsed":160951,"internal_node_id":"0.0-4.0-1.46","subject_id":"5bc9e924e642db0001d3a1c5","study_id":"6197b3f67c2b5cd3b6d9596a","session_id":"619bef051da4e025cc38e05d","condition":"contingent","relevant_dimensions":["wings","pattern"],"bee_group":{"antennae":"X","wings":"2","pattern":"S","legs":"X"},"bonus":1.1200000000000006},{"rt":868,"stimulus":"bees-with-color/bee-A1SM.svg","response":1,"trial_type":"image-button-response","trial_index":101,"time_elapsed":161821,"internal_node_id":"0.0-4.0-0.47","subject_id":"5bc9e924e642db0001d3a1c5","study_id":"6197b3f67c2b5cd3b6d9596a","session_id":"619bef051da4e025cc38e05d","condition":"contingent","relevant_dimensions":["wings","pattern"],"bee_group":{"antennae":"X","wings":"2","pattern":"S","legs":"X"},"action":"avoid","summary":"bad-avoid","bonus":1.1200000000000006},{"rt":842,"stimulus":"\n                    <p><b>Action: <em>avoid</em></b></p>\n                    <p>This is the bee that you just saw.</p>\n                    <img src=\"bees-with-color/bee-A1SM.svg\" width=\"200\">\n                    <p><br>Your bonus pay is unchanged, and remains at $0.92.</p>\n            ","response":0,"trial_type":"html-button-response","trial_index":102,"time_elapsed":162665,"internal_node_id":"0.0-4.0-1.47","subject_id":"5bc9e924e642db0001d3a1c5","study_id":"6197b3f67c2b5cd3b6d9596a","session_id":"619bef051da4e025cc38e05d","condition":"contingent","relevant_dimensions":["wings","pattern"],"bee_group":{"antennae":"X","wings":"2","pattern":"S","legs":"X"},"bonus":1.1200000000000006},{"rt":964,"stimulus":"bees-with-color/bee-A2DM.svg","response":0,"trial_type":"image-button-response","trial_index":103,"time_elapsed":163630,"internal_node_id":"0.0-4.0-0.48","subject_id":"5bc9e924e642db0001d3a1c5","study_id":"6197b3f67c2b5cd3b6d9596a","session_id":"619bef051da4e025cc38e05d","condition":"contingent","relevant_dimensions":["wings","pattern"],"bee_group":{"antennae":"X","wings":"2","pattern":"S","legs":"X"},"action":"harvest","summary":"good-harvest","bonus":1.1200000000000006},{"rt":964,"stimulus":"\n                    <p><b>Action: <em>harvest</em></b></p>\n                    <p>This is the bee that you just saw.</p>\n                    <img src=\"bees-with-color/bee-A2DM.svg\" width=\"200\">\n                    <p><span class=\"greenText\"><b>Successful harvest!</b></span><br>Your pay has increased by $0.02. Your bonus pay is now $0.94.</p>\n            ","response":0,"trial_type":"html-button-response","trial_index":104,"time_elapsed":164595,"internal_node_id":"0.0-4.0-1.48","subject_id":"5bc9e924e642db0001d3a1c5","study_id":"6197b3f67c2b5cd3b6d9596a","session_id":"619bef051da4e025cc38e05d","condition":"contingent","relevant_dimensions":["wings","pattern"],"bee_group":{"antennae":"X","wings":"2","pattern":"S","legs":"X"},"bonus":1.1200000000000006},{"rt":939,"stimulus":"bees-with-color/bee-B1SF.svg","response":1,"trial_type":"image-button-response","trial_index":105,"time_elapsed":165536,"internal_node_id":"0.0-4.0-0.49","subject_id":"5bc9e924e642db0001d3a1c5","study_id":"6197b3f67c2b5cd3b6d9596a","session_id":"619bef051da4e025cc38e05d","condition":"contingent","relevant_dimensions":["wings","pattern"],"bee_group":{"antennae":"X","wings":"2","pattern":"S","legs":"X"},"action":"avoid","summary":"bad-avoid","bonus":1.1200000000000006},{"rt":841,"stimulus":"\n                    <p><b>Action: <em>avoid</em></b></p>\n                    <p>This is the bee that you just saw.</p>\n                    <img src=\"bees-with-color/bee-B1SF.svg\" width=\"200\">\n                    <p><br>Your bonus pay is unchanged, and remains at $0.94.</p>\n            ","response":0,"trial_type":"html-button-response","trial_index":106,"time_elapsed":166380,"internal_node_id":"0.0-4.0-1.49","subject_id":"5bc9e924e642db0001d3a1c5","study_id":"6197b3f67c2b5cd3b6d9596a","session_id":"619bef051da4e025cc38e05d","condition":"contingent","relevant_dimensions":["wings","pattern"],"bee_group":{"antennae":"X","wings":"2","pattern":"S","legs":"X"},"bonus":1.1200000000000006},{"rt":1037,"stimulus":"bees-with-color/bee-B2SM.svg","response":1,"trial_type":"image-button-response","trial_index":107,"time_elapsed":167418,"internal_node_id":"0.0-4.0-0.50","subject_id":"5bc9e924e642db0001d3a1c5","study_id":"6197b3f67c2b5cd3b6d9596a","session_id":"619bef051da4e025cc38e05d","condition":"contingent","relevant_dimensions":["wings","pattern"],"bee_group":{"antennae":"X","wings":"2","pattern":"S","legs":"X"},"action":"avoid","summary":"good-avoid","bonus":1.1200000000000006},{"rt":1330,"stimulus":"\n                    <p><b>Action: <em>avoid</em></b></p>\n                    <p>This is the bee that you just saw.</p>\n                    <img src=\"bees-with-color/bee-B2SM.svg\" width=\"200\">\n                    <p><br>Your bonus pay is unchanged, and remains at $0.94.</p>\n            ","response":0,"trial_type":"html-button-response","trial_index":108,"time_elapsed":168750,"internal_node_id":"0.0-4.0-1.50","subject_id":"5bc9e924e642db0001d3a1c5","study_id":"6197b3f67c2b5cd3b6d9596a","session_id":"619bef051da4e025cc38e05d","condition":"contingent","relevant_dimensions":["wings","pattern"],"bee_group":{"antennae":"X","wings":"2","pattern":"S","legs":"X"},"bonus":1.1200000000000006},{"rt":1013,"stimulus":"bees-with-color/bee-A2DF.svg","response":0,"trial_type":"image-button-response","trial_index":109,"time_elapsed":169765,"internal_node_id":"0.0-4.0-0.51","subject_id":"5bc9e924e642db0001d3a1c5","study_id":"6197b3f67c2b5cd3b6d9596a","session_id":"619bef051da4e025cc38e05d","condition":"contingent","relevant_dimensions":["wings","pattern"],"bee_group":{"antennae":"X","wings":"2","pattern":"S","legs":"X"},"action":"harvest","summary":"good-harvest","bonus":1.1200000000000006},{"rt":1208,"stimulus":"\n                    <p><b>Action: <em>harvest</em></b></p>\n                    <p>This is the bee that you just saw.</p>\n                    <img src=\"bees-with-color/bee-A2DF.svg\" width=\"200\">\n                    <p><span class=\"greenText\"><b>Successful harvest!</b></span><br>Your pay has increased by $0.02. Your bonus pay is now $0.96.</p>\n            ","response":0,"trial_type":"html-button-response","trial_index":110,"time_elapsed":170975,"internal_node_id":"0.0-4.0-1.51","subject_id":"5bc9e924e642db0001d3a1c5","study_id":"6197b3f67c2b5cd3b6d9596a","session_id":"619bef051da4e025cc38e05d","condition":"contingent","relevant_dimensions":["wings","pattern"],"bee_group":{"antennae":"X","wings":"2","pattern":"S","legs":"X"},"bonus":1.1200000000000006},{"rt":1330,"stimulus":"bees-with-color/bee-B2DF.svg","response":0,"trial_type":"image-button-response","trial_index":111,"time_elapsed":172307,"internal_node_id":"0.0-4.0-0.52","subject_id":"5bc9e924e642db0001d3a1c5","study_id":"6197b3f67c2b5cd3b6d9596a","session_id":"619bef051da4e025cc38e05d","condition":"contingent","relevant_dimensions":["wings","pattern"],"bee_group":{"antennae":"X","wings":"2","pattern":"S","legs":"X"},"action":"harvest","summary":"good-harvest","bonus":1.1200000000000006},{"rt":1074,"stimulus":"\n                    <p><b>Action: <em>harvest</em></b></p>\n                    <p>This is the bee that you just saw.</p>\n                    <img src=\"bees-with-color/bee-B2DF.svg\" width=\"200\">\n                    <p><span class=\"greenText\"><b>Successful harvest!</b></span><br>Your pay has increased by $0.02. Your bonus pay is now $0.98.</p>\n            ","response":0,"trial_type":"html-button-response","trial_index":112,"time_elapsed":173384,"internal_node_id":"0.0-4.0-1.52","subject_id":"5bc9e924e642db0001d3a1c5","study_id":"6197b3f67c2b5cd3b6d9596a","session_id":"619bef051da4e025cc38e05d","condition":"contingent","relevant_dimensions":["wings","pattern"],"bee_group":{"antennae":"X","wings":"2","pattern":"S","legs":"X"},"bonus":1.1200000000000006},{"rt":1170,"stimulus":"bees-with-color/bee-A1SF.svg","response":1,"trial_type":"image-button-response","trial_index":113,"time_elapsed":174557,"internal_node_id":"0.0-4.0-0.53","subject_id":"5bc9e924e642db0001d3a1c5","study_id":"6197b3f67c2b5cd3b6d9596a","session_id":"619bef051da4e025cc38e05d","condition":"contingent","relevant_dimensions":["wings","pattern"],"bee_group":{"antennae":"X","wings":"2","pattern":"S","legs":"X"},"action":"avoid","summary":"bad-avoid","bonus":1.1200000000000006},{"rt":819,"stimulus":"\n                    <p><b>Action: <em>avoid</em></b></p>\n                    <p>This is the bee that you just saw.</p>\n                    <img src=\"bees-with-color/bee-A1SF.svg\" width=\"200\">\n                    <p><br>Your bonus pay is unchanged, and remains at $0.98.</p>\n            ","response":0,"trial_type":"html-button-response","trial_index":114,"time_elapsed":175380,"internal_node_id":"0.0-4.0-1.53","subject_id":"5bc9e924e642db0001d3a1c5","study_id":"6197b3f67c2b5cd3b6d9596a","session_id":"619bef051da4e025cc38e05d","condition":"contingent","relevant_dimensions":["wings","pattern"],"bee_group":{"antennae":"X","wings":"2","pattern":"S","legs":"X"},"bonus":1.1200000000000006},{"rt":872,"stimulus":"bees-with-color/bee-A2SM.svg","response":1,"trial_type":"image-button-response","trial_index":115,"time_elapsed":176256,"internal_node_id":"0.0-4.0-0.54","subject_id":"5bc9e924e642db0001d3a1c5","study_id":"6197b3f67c2b5cd3b6d9596a","session_id":"619bef051da4e025cc38e05d","condition":"contingent","relevant_dimensions":["wings","pattern"],"bee_group":{"antennae":"X","wings":"2","pattern":"S","legs":"X"},"action":"avoid","summary":"good-avoid","bonus":1.1200000000000006},{"rt":887,"stimulus":"\n                    <p><b>Action: <em>avoid</em></b></p>\n                    <p>This is the bee that you just saw.</p>\n                    <img src=\"bees-with-color/bee-A2SM.svg\" width=\"200\">\n                    <p><br>Your bonus pay is unchanged, and remains at $0.98.</p>\n            ","response":0,"trial_type":"html-button-response","trial_index":116,"time_elapsed":177146,"internal_node_id":"0.0-4.0-1.54","subject_id":"5bc9e924e642db0001d3a1c5","study_id":"6197b3f67c2b5cd3b6d9596a","session_id":"619bef051da4e025cc38e05d","condition":"contingent","relevant_dimensions":["wings","pattern"],"bee_group":{"antennae":"X","wings":"2","pattern":"S","legs":"X"},"bonus":1.1200000000000006},{"rt":879,"stimulus":"bees-with-color/bee-B1DM.svg","response":0,"trial_type":"image-button-response","trial_index":117,"time_elapsed":178028,"internal_node_id":"0.0-4.0-0.55","subject_id":"5bc9e924e642db0001d3a1c5","study_id":"6197b3f67c2b5cd3b6d9596a","session_id":"619bef051da4e025cc38e05d","condition":"contingent","relevant_dimensions":["wings","pattern"],"bee_group":{"antennae":"X","wings":"2","pattern":"S","legs":"X"},"action":"harvest","summary":"good-harvest","bonus":1.1200000000000006},{"rt":1181,"stimulus":"\n                    <p><b>Action: <em>harvest</em></b></p>\n                    <p>This is the bee that you just saw.</p>\n                    <img src=\"bees-with-color/bee-B1DM.svg\" width=\"200\">\n                    <p><span class=\"greenText\"><b>Successful harvest!</b></span><br>Your pay has increased by $0.02. Your bonus pay is now $1.00.</p>\n            ","response":0,"trial_type":"html-button-response","trial_index":118,"time_elapsed":179212,"internal_node_id":"0.0-4.0-1.55","subject_id":"5bc9e924e642db0001d3a1c5","study_id":"6197b3f67c2b5cd3b6d9596a","session_id":"619bef051da4e025cc38e05d","condition":"contingent","relevant_dimensions":["wings","pattern"],"bee_group":{"antennae":"X","wings":"2","pattern":"S","legs":"X"},"bonus":1.1200000000000006},{"rt":830,"stimulus":"bees-with-color/bee-B1SM.svg","response":1,"trial_type":"image-button-response","trial_index":119,"time_elapsed":180045,"internal_node_id":"0.0-4.0-0.56","subject_id":"5bc9e924e642db0001d3a1c5","study_id":"6197b3f67c2b5cd3b6d9596a","session_id":"619bef051da4e025cc38e05d","condition":"contingent","relevant_dimensions":["wings","pattern"],"bee_group":{"antennae":"X","wings":"2","pattern":"S","legs":"X"},"action":"avoid","summary":"bad-avoid","bonus":1.1200000000000006},{"rt":878,"stimulus":"\n                    <p><b>Action: <em>avoid</em></b></p>\n                    <p>This is the bee that you just saw.</p>\n                    <img src=\"bees-with-color/bee-B1SM.svg\" width=\"200\">\n                    <p><br>Your bonus pay is unchanged, and remains at $1.00.</p>\n            ","response":0,"trial_type":"html-button-response","trial_index":120,"time_elapsed":180924,"internal_node_id":"0.0-4.0-1.56","subject_id":"5bc9e924e642db0001d3a1c5","study_id":"6197b3f67c2b5cd3b6d9596a","session_id":"619bef051da4e025cc38e05d","condition":"contingent","relevant_dimensions":["wings","pattern"],"bee_group":{"antennae":"X","wings":"2","pattern":"S","legs":"X"},"bonus":1.1200000000000006},{"rt":1453,"stimulus":"bees-with-color/bee-A1DF.svg","response":0,"trial_type":"image-button-response","trial_index":121,"time_elapsed":182380,"internal_node_id":"0.0-4.0-0.57","subject_id":"5bc9e924e642db0001d3a1c5","study_id":"6197b3f67c2b5cd3b6d9596a","session_id":"619bef051da4e025cc38e05d","condition":"contingent","relevant_dimensions":["wings","pattern"],"bee_group":{"antennae":"X","wings":"2","pattern":"S","legs":"X"},"action":"harvest","summary":"good-harvest","bonus":1.1200000000000006},{"rt":864,"stimulus":"\n                    <p><b>Action: <em>harvest</em></b></p>\n                    <p>This is the bee that you just saw.</p>\n                    <img src=\"bees-with-color/bee-A1DF.svg\" width=\"200\">\n                    <p><span class=\"greenText\"><b>Successful harvest!</b></span><br>Your pay has increased by $0.02. Your bonus pay is now $1.02.</p>\n            ","response":0,"trial_type":"html-button-response","trial_index":122,"time_elapsed":183247,"internal_node_id":"0.0-4.0-1.57","subject_id":"5bc9e924e642db0001d3a1c5","study_id":"6197b3f67c2b5cd3b6d9596a","session_id":"619bef051da4e025cc38e05d","condition":"contingent","relevant_dimensions":["wings","pattern"],"bee_group":{"antennae":"X","wings":"2","pattern":"S","legs":"X"},"bonus":1.1200000000000006},{"rt":929,"stimulus":"bees-with-color/bee-B1DF.svg","response":0,"trial_type":"image-button-response","trial_index":123,"time_elapsed":184177,"internal_node_id":"0.0-4.0-0.58","subject_id":"5bc9e924e642db0001d3a1c5","study_id":"6197b3f67c2b5cd3b6d9596a","session_id":"619bef051da4e025cc38e05d","condition":"contingent","relevant_dimensions":["wings","pattern"],"bee_group":{"antennae":"X","wings":"2","pattern":"S","legs":"X"},"action":"harvest","summary":"good-harvest","bonus":1.1200000000000006},{"rt":952,"stimulus":"\n                    <p><b>Action: <em>harvest</em></b></p>\n                    <p>This is the bee that you just saw.</p>\n                    <img src=\"bees-with-color/bee-B1DF.svg\" width=\"200\">\n                    <p><span class=\"greenText\"><b>Successful harvest!</b></span><br>Your pay has increased by $0.02. Your bonus pay is now $1.04.</p>\n            ","response":0,"trial_type":"html-button-response","trial_index":124,"time_elapsed":185130,"internal_node_id":"0.0-4.0-1.58","subject_id":"5bc9e924e642db0001d3a1c5","study_id":"6197b3f67c2b5cd3b6d9596a","session_id":"619bef051da4e025cc38e05d","condition":"contingent","relevant_dimensions":["wings","pattern"],"bee_group":{"antennae":"X","wings":"2","pattern":"S","legs":"X"},"bonus":1.1200000000000006},{"rt":877,"stimulus":"bees-with-color/bee-B2DM.svg","response":0,"trial_type":"image-button-response","trial_index":125,"time_elapsed":186010,"internal_node_id":"0.0-4.0-0.59","subject_id":"5bc9e924e642db0001d3a1c5","study_id":"6197b3f67c2b5cd3b6d9596a","session_id":"619bef051da4e025cc38e05d","condition":"contingent","relevant_dimensions":["wings","pattern"],"bee_group":{"antennae":"X","wings":"2","pattern":"S","legs":"X"},"action":"harvest","summary":"good-harvest","bonus":1.1200000000000006},{"rt":818,"stimulus":"\n                    <p><b>Action: <em>harvest</em></b></p>\n                    <p>This is the bee that you just saw.</p>\n                    <img src=\"bees-with-color/bee-B2DM.svg\" width=\"200\">\n                    <p><span class=\"greenText\"><b>Successful harvest!</b></span><br>Your pay has increased by $0.02. Your bonus pay is now $1.06.</p>\n            ","response":0,"trial_type":"html-button-response","trial_index":126,"time_elapsed":186828,"internal_node_id":"0.0-4.0-1.59","subject_id":"5bc9e924e642db0001d3a1c5","study_id":"6197b3f67c2b5cd3b6d9596a","session_id":"619bef051da4e025cc38e05d","condition":"contingent","relevant_dimensions":["wings","pattern"],"bee_group":{"antennae":"X","wings":"2","pattern":"S","legs":"X"},"bonus":1.1200000000000006},{"rt":964,"stimulus":"bees-with-color/bee-A2SF.svg","response":1,"trial_type":"image-button-response","trial_index":127,"time_elapsed":187793,"internal_node_id":"0.0-4.0-0.60","subject_id":"5bc9e924e642db0001d3a1c5","study_id":"6197b3f67c2b5cd3b6d9596a","session_id":"619bef051da4e025cc38e05d","condition":"contingent","relevant_dimensions":["wings","pattern"],"bee_group":{"antennae":"X","wings":"2","pattern":"S","legs":"X"},"action":"avoid","summary":"good-avoid","bonus":1.1200000000000006},{"rt":891,"stimulus":"\n                    <p><b>Action: <em>avoid</em></b></p>\n                    <p>This is the bee that you just saw.</p>\n                    <img src=\"bees-with-color/bee-A2SF.svg\" width=\"200\">\n                    <p><br>Your bonus pay is unchanged, and remains at $1.06.</p>\n            ","response":0,"trial_type":"html-button-response","trial_index":128,"time_elapsed":188686,"internal_node_id":"0.0-4.0-1.60","subject_id":"5bc9e924e642db0001d3a1c5","study_id":"6197b3f67c2b5cd3b6d9596a","session_id":"619bef051da4e025cc38e05d","condition":"contingent","relevant_dimensions":["wings","pattern"],"bee_group":{"antennae":"X","wings":"2","pattern":"S","legs":"X"},"bonus":1.1200000000000006},{"rt":1305,"stimulus":"bees-with-color/bee-A1DM.svg","response":0,"trial_type":"image-button-response","trial_index":129,"time_elapsed":189994,"internal_node_id":"0.0-4.0-0.61","subject_id":"5bc9e924e642db0001d3a1c5","study_id":"6197b3f67c2b5cd3b6d9596a","session_id":"619bef051da4e025cc38e05d","condition":"contingent","relevant_dimensions":["wings","pattern"],"bee_group":{"antennae":"X","wings":"2","pattern":"S","legs":"X"},"action":"harvest","summary":"good-harvest","bonus":1.1200000000000006},{"rt":914,"stimulus":"\n                    <p><b>Action: <em>harvest</em></b></p>\n                    <p>This is the bee that you just saw.</p>\n                    <img src=\"bees-with-color/bee-A1DM.svg\" width=\"200\">\n                    <p><span class=\"greenText\"><b>Successful harvest!</b></span><br>Your pay has increased by $0.02. Your bonus pay is now $1.08.</p>\n            ","response":0,"trial_type":"html-button-response","trial_index":130,"time_elapsed":190910,"internal_node_id":"0.0-4.0-1.61","subject_id":"5bc9e924e642db0001d3a1c5","study_id":"6197b3f67c2b5cd3b6d9596a","session_id":"619bef051da4e025cc38e05d","condition":"contingent","relevant_dimensions":["wings","pattern"],"bee_group":{"antennae":"X","wings":"2","pattern":"S","legs":"X"},"bonus":1.1200000000000006},{"rt":829,"stimulus":"bees-with-color/bee-B2SF.svg","response":1,"trial_type":"image-button-response","trial_index":131,"time_elapsed":191742,"internal_node_id":"0.0-4.0-0.62","subject_id":"5bc9e924e642db0001d3a1c5","study_id":"6197b3f67c2b5cd3b6d9596a","session_id":"619bef051da4e025cc38e05d","condition":"contingent","relevant_dimensions":["wings","pattern"],"bee_group":{"antennae":"X","wings":"2","pattern":"S","legs":"X"},"action":"avoid","summary":"good-avoid","bonus":1.1200000000000006},{"rt":854,"stimulus":"\n                    <p><b>Action: <em>avoid</em></b></p>\n                    <p>This is the bee that you just saw.</p>\n                    <img src=\"bees-with-color/bee-B2SF.svg\" width=\"200\">\n                    <p><br>Your bonus pay is unchanged, and remains at $1.08.</p>\n            ","response":0,"trial_type":"html-button-response","trial_index":132,"time_elapsed":192597,"internal_node_id":"0.0-4.0-1.62","subject_id":"5bc9e924e642db0001d3a1c5","study_id":"6197b3f67c2b5cd3b6d9596a","session_id":"619bef051da4e025cc38e05d","condition":"contingent","relevant_dimensions":["wings","pattern"],"bee_group":{"antennae":"X","wings":"2","pattern":"S","legs":"X"},"bonus":1.1200000000000006},{"rt":842,"stimulus":"bees-with-color/bee-A1SM.svg","response":1,"trial_type":"image-button-response","trial_index":133,"time_elapsed":193441,"internal_node_id":"0.0-4.0-0.63","subject_id":"5bc9e924e642db0001d3a1c5","study_id":"6197b3f67c2b5cd3b6d9596a","session_id":"619bef051da4e025cc38e05d","condition":"contingent","relevant_dimensions":["wings","pattern"],"bee_group":{"antennae":"X","wings":"2","pattern":"S","legs":"X"},"action":"avoid","summary":"bad-avoid","bonus":1.1200000000000006},{"rt":767,"stimulus":"\n                    <p><b>Action: <em>avoid</em></b></p>\n                    <p>This is the bee that you just saw.</p>\n                    <img src=\"bees-with-color/bee-A1SM.svg\" width=\"200\">\n                    <p><br>Your bonus pay is unchanged, and remains at $1.08.</p>\n            ","response":0,"trial_type":"html-button-response","trial_index":134,"time_elapsed":194210,"internal_node_id":"0.0-4.0-1.63","subject_id":"5bc9e924e642db0001d3a1c5","study_id":"6197b3f67c2b5cd3b6d9596a","session_id":"619bef051da4e025cc38e05d","condition":"contingent","relevant_dimensions":["wings","pattern"],"bee_group":{"antennae":"X","wings":"2","pattern":"S","legs":"X"},"bonus":1.1200000000000006},{"rt":4831,"stimulus":"You have completed the first part of this experiment.<br><br>You will now begin a shorter second part, in which you will receive no feedback.<br>The same rules regarding bonus pay apply.<br><br>Press any key to begin.","response":" ","trial_type":"html-keyboard-response","trial_index":135,"time_elapsed":199043,"internal_node_id":"0.0-5.0","subject_id":"5bc9e924e642db0001d3a1c5","study_id":"6197b3f67c2b5cd3b6d9596a","session_id":"619bef051da4e025cc38e05d","condition":"contingent","relevant_dimensions":["wings","pattern"],"bee_group":{"antennae":"X","wings":"2","pattern":"S","legs":"X"},"bonus":1.1200000000000006},{"rt":2217,"stimulus":"bees-with-color/bee-A2DF.svg","response":0,"trial_type":"image-button-response","trial_index":136,"time_elapsed":201263,"internal_node_id":"0.0-6.0-0.0","subject_id":"5bc9e924e642db0001d3a1c5","study_id":"6197b3f67c2b5cd3b6d9596a","session_id":"619bef051da4e025cc38e05d","condition":"contingent","relevant_dimensions":["wings","pattern"],"bee_group":{"antennae":"X","wings":"2","pattern":"S","legs":"X"},"bonus":1.1200000000000006},{"rt":3482,"stimulus":"bees-with-color/bee-B2DF.svg","response":0,"trial_type":"image-button-response","trial_index":137,"time_elapsed":204747,"internal_node_id":"0.0-6.0-0.1","subject_id":"5bc9e924e642db0001d3a1c5","study_id":"6197b3f67c2b5cd3b6d9596a","session_id":"619bef051da4e025cc38e05d","condition":"contingent","relevant_dimensions":["wings","pattern"],"bee_group":{"antennae":"X","wings":"2","pattern":"S","legs":"X"},"bonus":1.1200000000000006},{"rt":1649,"stimulus":"bees-with-color/bee-A1SF.svg","response":1,"trial_type":"image-button-response","trial_index":138,"time_elapsed":206397,"internal_node_id":"0.0-6.0-0.2","subject_id":"5bc9e924e642db0001d3a1c5","study_id":"6197b3f67c2b5cd3b6d9596a","session_id":"619bef051da4e025cc38e05d","condition":"contingent","relevant_dimensions":["wings","pattern"],"bee_group":{"antennae":"X","wings":"2","pattern":"S","legs":"X"},"bonus":1.1200000000000006},{"rt":449,"stimulus":"bees-with-color/bee-B2DM.svg","response":1,"trial_type":"image-button-response","trial_index":139,"time_elapsed":206849,"internal_node_id":"0.0-6.0-0.3","subject_id":"5bc9e924e642db0001d3a1c5","study_id":"6197b3f67c2b5cd3b6d9596a","session_id":"619bef051da4e025cc38e05d","condition":"contingent","relevant_dimensions":["wings","pattern"],"bee_group":{"antennae":"X","wings":"2","pattern":"S","legs":"X"},"bonus":1.1200000000000006},{"rt":343,"stimulus":"bees-with-color/bee-A2SF.svg","response":1,"trial_type":"image-button-response","trial_index":140,"time_elapsed":207195,"internal_node_id":"0.0-6.0-0.4","subject_id":"5bc9e924e642db0001d3a1c5","study_id":"6197b3f67c2b5cd3b6d9596a","session_id":"619bef051da4e025cc38e05d","condition":"contingent","relevant_dimensions":["wings","pattern"],"bee_group":{"antennae":"X","wings":"2","pattern":"S","legs":"X"},"bonus":1.1200000000000006},{"rt":387,"stimulus":"bees-with-color/bee-A1SM.svg","response":1,"trial_type":"image-button-response","trial_index":141,"time_elapsed":207584,"internal_node_id":"0.0-6.0-0.5","subject_id":"5bc9e924e642db0001d3a1c5","study_id":"6197b3f67c2b5cd3b6d9596a","session_id":"619bef051da4e025cc38e05d","condition":"contingent","relevant_dimensions":["wings","pattern"],"bee_group":{"antennae":"X","wings":"2","pattern":"S","legs":"X"},"bonus":1.1200000000000006},{"rt":291,"stimulus":"bees-with-color/bee-B1SF.svg","response":1,"trial_type":"image-button-response","trial_index":142,"time_elapsed":207877,"internal_node_id":"0.0-6.0-0.6","subject_id":"5bc9e924e642db0001d3a1c5","study_id":"6197b3f67c2b5cd3b6d9596a","session_id":"619bef051da4e025cc38e05d","condition":"contingent","relevant_dimensions":["wings","pattern"],"bee_group":{"antennae":"X","wings":"2","pattern":"S","legs":"X"},"bonus":1.1200000000000006},{"rt":267,"stimulus":"bees-with-color/bee-B2SF.svg","response":1,"trial_type":"image-button-response","trial_index":143,"time_elapsed":208145,"internal_node_id":"0.0-6.0-0.7","subject_id":"5bc9e924e642db0001d3a1c5","study_id":"6197b3f67c2b5cd3b6d9596a","session_id":"619bef051da4e025cc38e05d","condition":"contingent","relevant_dimensions":["wings","pattern"],"bee_group":{"antennae":"X","wings":"2","pattern":"S","legs":"X"},"bonus":1.1200000000000006},{"rt":169,"stimulus":"bees-with-color/bee-A2DM.svg","response":1,"trial_type":"image-button-response","trial_index":144,"time_elapsed":208316,"internal_node_id":"0.0-6.0-0.8","subject_id":"5bc9e924e642db0001d3a1c5","study_id":"6197b3f67c2b5cd3b6d9596a","session_id":"619bef051da4e025cc38e05d","condition":"contingent","relevant_dimensions":["wings","pattern"],"bee_group":{"antennae":"X","wings":"2","pattern":"S","legs":"X"},"bonus":1.1200000000000006},{"rt":475,"stimulus":"bees-with-color/bee-B1SM.svg","response":1,"trial_type":"image-button-response","trial_index":145,"time_elapsed":208793,"internal_node_id":"0.0-6.0-0.9","subject_id":"5bc9e924e642db0001d3a1c5","study_id":"6197b3f67c2b5cd3b6d9596a","session_id":"619bef051da4e025cc38e05d","condition":"contingent","relevant_dimensions":["wings","pattern"],"bee_group":{"antennae":"X","wings":"2","pattern":"S","legs":"X"},"bonus":1.1200000000000006},{"rt":549,"stimulus":"bees-with-color/bee-B2SM.svg","response":1,"trial_type":"image-button-response","trial_index":146,"time_elapsed":209343,"internal_node_id":"0.0-6.0-0.10","subject_id":"5bc9e924e642db0001d3a1c5","study_id":"6197b3f67c2b5cd3b6d9596a","session_id":"619bef051da4e025cc38e05d","condition":"contingent","relevant_dimensions":["wings","pattern"],"bee_group":{"antennae":"X","wings":"2","pattern":"S","legs":"X"},"bonus":1.1200000000000006},{"rt":377,"stimulus":"bees-with-color/bee-A1DM.svg","response":1,"trial_type":"image-button-response","trial_index":147,"time_elapsed":209722,"internal_node_id":"0.0-6.0-0.11","subject_id":"5bc9e924e642db0001d3a1c5","study_id":"6197b3f67c2b5cd3b6d9596a","session_id":"619bef051da4e025cc38e05d","condition":"contingent","relevant_dimensions":["wings","pattern"],"bee_group":{"antennae":"X","wings":"2","pattern":"S","legs":"X"},"bonus":1.1200000000000006},{"rt":402,"stimulus":"bees-with-color/bee-A2SM.svg","response":1,"trial_type":"image-button-response","trial_index":148,"time_elapsed":210126,"internal_node_id":"0.0-6.0-0.12","subject_id":"5bc9e924e642db0001d3a1c5","study_id":"6197b3f67c2b5cd3b6d9596a","session_id":"619bef051da4e025cc38e05d","condition":"contingent","relevant_dimensions":["wings","pattern"],"bee_group":{"antennae":"X","wings":"2","pattern":"S","legs":"X"},"bonus":1.1200000000000006},{"rt":367,"stimulus":"bees-with-color/bee-A1DF.svg","response":1,"trial_type":"image-button-response","trial_index":149,"time_elapsed":210494,"internal_node_id":"0.0-6.0-0.13","subject_id":"5bc9e924e642db0001d3a1c5","study_id":"6197b3f67c2b5cd3b6d9596a","session_id":"619bef051da4e025cc38e05d","condition":"contingent","relevant_dimensions":["wings","pattern"],"bee_group":{"antennae":"X","wings":"2","pattern":"S","legs":"X"},"bonus":1.1200000000000006},{"rt":424,"stimulus":"bees-with-color/bee-B1DF.svg","response":1,"trial_type":"image-button-response","trial_index":150,"time_elapsed":210920,"internal_node_id":"0.0-6.0-0.14","subject_id":"5bc9e924e642db0001d3a1c5","study_id":"6197b3f67c2b5cd3b6d9596a","session_id":"619bef051da4e025cc38e05d","condition":"contingent","relevant_dimensions":["wings","pattern"],"bee_group":{"antennae":"X","wings":"2","pattern":"S","legs":"X"},"bonus":1.1200000000000006},{"rt":402,"stimulus":"bees-with-color/bee-B1DM.svg","response":1,"trial_type":"image-button-response","trial_index":151,"time_elapsed":211324,"internal_node_id":"0.0-6.0-0.15","subject_id":"5bc9e924e642db0001d3a1c5","study_id":"6197b3f67c2b5cd3b6d9596a","session_id":"619bef051da4e025cc38e05d","condition":"contingent","relevant_dimensions":["wings","pattern"],"bee_group":{"antennae":"X","wings":"2","pattern":"S","legs":"X"},"bonus":1.1200000000000006},{"rt":412,"stimulus":"bees-with-color/bee-B1SM.svg","response":1,"trial_type":"image-button-response","trial_index":152,"time_elapsed":211739,"internal_node_id":"0.0-6.0-0.16","subject_id":"5bc9e924e642db0001d3a1c5","study_id":"6197b3f67c2b5cd3b6d9596a","session_id":"619bef051da4e025cc38e05d","condition":"contingent","relevant_dimensions":["wings","pattern"],"bee_group":{"antennae":"X","wings":"2","pattern":"S","legs":"X"},"bonus":1.1200000000000006},{"rt":353,"stimulus":"bees-with-color/bee-A1SF.svg","response":1,"trial_type":"image-button-response","trial_index":153,"time_elapsed":212094,"internal_node_id":"0.0-6.0-0.17","subject_id":"5bc9e924e642db0001d3a1c5","study_id":"6197b3f67c2b5cd3b6d9596a","session_id":"619bef051da4e025cc38e05d","condition":"contingent","relevant_dimensions":["wings","pattern"],"bee_group":{"antennae":"X","wings":"2","pattern":"S","legs":"X"},"bonus":1.1200000000000006},{"rt":389,"stimulus":"bees-with-color/bee-B1SF.svg","response":1,"trial_type":"image-button-response","trial_index":154,"time_elapsed":212484,"internal_node_id":"0.0-6.0-0.18","subject_id":"5bc9e924e642db0001d3a1c5","study_id":"6197b3f67c2b5cd3b6d9596a","session_id":"619bef051da4e025cc38e05d","condition":"contingent","relevant_dimensions":["wings","pattern"],"bee_group":{"antennae":"X","wings":"2","pattern":"S","legs":"X"},"bonus":1.1200000000000006},{"rt":366,"stimulus":"bees-with-color/bee-A2SF.svg","response":1,"trial_type":"image-button-response","trial_index":155,"time_elapsed":212852,"internal_node_id":"0.0-6.0-0.19","subject_id":"5bc9e924e642db0001d3a1c5","study_id":"6197b3f67c2b5cd3b6d9596a","session_id":"619bef051da4e025cc38e05d","condition":"contingent","relevant_dimensions":["wings","pattern"],"bee_group":{"antennae":"X","wings":"2","pattern":"S","legs":"X"},"bonus":1.1200000000000006},{"rt":389,"stimulus":"bees-with-color/bee-B2SF.svg","response":1,"trial_type":"image-button-response","trial_index":156,"time_elapsed":213243,"internal_node_id":"0.0-6.0-0.20","subject_id":"5bc9e924e642db0001d3a1c5","study_id":"6197b3f67c2b5cd3b6d9596a","session_id":"619bef051da4e025cc38e05d","condition":"contingent","relevant_dimensions":["wings","pattern"],"bee_group":{"antennae":"X","wings":"2","pattern":"S","legs":"X"},"bonus":1.1200000000000006},{"rt":376,"stimulus":"bees-with-color/bee-B1DM.svg","response":1,"trial_type":"image-button-response","trial_index":157,"time_elapsed":213621,"internal_node_id":"0.0-6.0-0.21","subject_id":"5bc9e924e642db0001d3a1c5","study_id":"6197b3f67c2b5cd3b6d9596a","session_id":"619bef051da4e025cc38e05d","condition":"contingent","relevant_dimensions":["wings","pattern"],"bee_group":{"antennae":"X","wings":"2","pattern":"S","legs":"X"},"bonus":1.1200000000000006},{"rt":379,"stimulus":"bees-with-color/bee-B1DF.svg","response":1,"trial_type":"image-button-response","trial_index":158,"time_elapsed":214001,"internal_node_id":"0.0-6.0-0.22","subject_id":"5bc9e924e642db0001d3a1c5","study_id":"6197b3f67c2b5cd3b6d9596a","session_id":"619bef051da4e025cc38e05d","condition":"contingent","relevant_dimensions":["wings","pattern"],"bee_group":{"antennae":"X","wings":"2","pattern":"S","legs":"X"},"bonus":1.1200000000000006},{"rt":351,"stimulus":"bees-with-color/bee-A1DF.svg","response":1,"trial_type":"image-button-response","trial_index":159,"time_elapsed":214354,"internal_node_id":"0.0-6.0-0.23","subject_id":"5bc9e924e642db0001d3a1c5","study_id":"6197b3f67c2b5cd3b6d9596a","session_id":"619bef051da4e025cc38e05d","condition":"contingent","relevant_dimensions":["wings","pattern"],"bee_group":{"antennae":"X","wings":"2","pattern":"S","legs":"X"},"bonus":1.1200000000000006},{"rt":378,"stimulus":"bees-with-color/bee-A2DF.svg","response":1,"trial_type":"image-button-response","trial_index":160,"time_elapsed":214734,"internal_node_id":"0.0-6.0-0.24","subject_id":"5bc9e924e642db0001d3a1c5","study_id":"6197b3f67c2b5cd3b6d9596a","session_id":"619bef051da4e025cc38e05d","condition":"contingent","relevant_dimensions":["wings","pattern"],"bee_group":{"antennae":"X","wings":"2","pattern":"S","legs":"X"},"bonus":1.1200000000000006},{"rt":391,"stimulus":"bees-with-color/bee-B2DF.svg","response":1,"trial_type":"image-button-response","trial_index":161,"time_elapsed":215126,"internal_node_id":"0.0-6.0-0.25","subject_id":"5bc9e924e642db0001d3a1c5","study_id":"6197b3f67c2b5cd3b6d9596a","session_id":"619bef051da4e025cc38e05d","condition":"contingent","relevant_dimensions":["wings","pattern"],"bee_group":{"antennae":"X","wings":"2","pattern":"S","legs":"X"},"bonus":1.1200000000000006},{"rt":375,"stimulus":"bees-with-color/bee-A2SM.svg","response":1,"trial_type":"image-button-response","trial_index":162,"time_elapsed":215504,"internal_node_id":"0.0-6.0-0.26","subject_id":"5bc9e924e642db0001d3a1c5","study_id":"6197b3f67c2b5cd3b6d9596a","session_id":"619bef051da4e025cc38e05d","condition":"contingent","relevant_dimensions":["wings","pattern"],"bee_group":{"antennae":"X","wings":"2","pattern":"S","legs":"X"},"bonus":1.1200000000000006},{"rt":377,"stimulus":"bees-with-color/bee-A2DM.svg","response":1,"trial_type":"image-button-response","trial_index":163,"time_elapsed":215883,"internal_node_id":"0.0-6.0-0.27","subject_id":"5bc9e924e642db0001d3a1c5","study_id":"6197b3f67c2b5cd3b6d9596a","session_id":"619bef051da4e025cc38e05d","condition":"contingent","relevant_dimensions":["wings","pattern"],"bee_group":{"antennae":"X","wings":"2","pattern":"S","legs":"X"},"bonus":1.1200000000000006},{"rt":366,"stimulus":"bees-with-color/bee-A1DM.svg","response":1,"trial_type":"image-button-response","trial_index":164,"time_elapsed":216250,"internal_node_id":"0.0-6.0-0.28","subject_id":"5bc9e924e642db0001d3a1c5","study_id":"6197b3f67c2b5cd3b6d9596a","session_id":"619bef051da4e025cc38e05d","condition":"contingent","relevant_dimensions":["wings","pattern"],"bee_group":{"antennae":"X","wings":"2","pattern":"S","legs":"X"},"bonus":1.1200000000000006},{"rt":352,"stimulus":"bees-with-color/bee-B2SM.svg","response":1,"trial_type":"image-button-response","trial_index":165,"time_elapsed":216604,"internal_node_id":"0.0-6.0-0.29","subject_id":"5bc9e924e642db0001d3a1c5","study_id":"6197b3f67c2b5cd3b6d9596a","session_id":"619bef051da4e025cc38e05d","condition":"contingent","relevant_dimensions":["wings","pattern"],"bee_group":{"antennae":"X","wings":"2","pattern":"S","legs":"X"},"bonus":1.1200000000000006},{"rt":635,"stimulus":"bees-with-color/bee-A1SM.svg","response":1,"trial_type":"image-button-response","trial_index":166,"time_elapsed":217240,"internal_node_id":"0.0-6.0-0.30","subject_id":"5bc9e924e642db0001d3a1c5","study_id":"6197b3f67c2b5cd3b6d9596a","session_id":"619bef051da4e025cc38e05d","condition":"contingent","relevant_dimensions":["wings","pattern"],"bee_group":{"antennae":"X","wings":"2","pattern":"S","legs":"X"},"bonus":1.1200000000000006},{"rt":535,"stimulus":"bees-with-color/bee-B2DM.svg","response":1,"trial_type":"image-button-response","trial_index":167,"time_elapsed":217777,"internal_node_id":"0.0-6.0-0.31","subject_id":"5bc9e924e642db0001d3a1c5","study_id":"6197b3f67c2b5cd3b6d9596a","session_id":"619bef051da4e025cc38e05d","condition":"contingent","relevant_dimensions":["wings","pattern"],"bee_group":{"antennae":"X","wings":"2","pattern":"S","legs":"X"},"bonus":1.1200000000000006},{"rt":3005,"stimulus":"You started with $2.50 of base pay.<br><br>\n            You made $1.12 in bonus pay,\n            for a total of <b>$3.62</b>.","response":0,"trial_type":"html-button-response","trial_index":168,"time_elapsed":220784,"internal_node_id":"0.0-7.0-0.0","subject_id":"5bc9e924e642db0001d3a1c5","study_id":"6197b3f67c2b5cd3b6d9596a","session_id":"619bef051da4e025cc38e05d","condition":"contingent","relevant_dimensions":["wings","pattern"],"bee_group":{"antennae":"X","wings":"2","pattern":"S","legs":"X"},"bonus":1.120000000