[{"success":true,"trial_type":"fullscreen","trial_index":0,"time_elapsed":17668,"internal_node_id":"0.0-0.0","subject_id":"605563e772e44013a0772597","study_id":"6197b3f67c2b5cd3b6d9596a","session_id":"619bef06e9a252b640379807","condition":"full-information","relevant_dimensions":["wings","pattern"],"bee_group":{"antennae":"X","wings":"1","pattern":"D","legs":"X"},"bonus":1.3400000000000007},{"success":true,"timeout":false,"failed_images":[],"failed_audio":[],"failed_video":[],"trial_type":"preload","trial_index":1,"time_elapsed":19720,"internal_node_id":"0.0-1.0","subject_id":"605563e772e44013a0772597","study_id":"6197b3f67c2b5cd3b6d9596a","session_id":"619bef06e9a252b640379807","condition":"full-information","relevant_dimensions":["wings","pattern"],"bee_group":{"antennae":"X","wings":"1","pattern":"D","legs":"X"},"bonus":1.3400000000000007},{"rt":1687,"stimulus":"Welcome! Press any key to begin.","response":" ","trial_type":"html-keyboard-response","trial_index":2,"time_elapsed":21409,"internal_node_id":"0.0-2.0","subject_id":"605563e772e44013a0772597","study_id":"6197b3f67c2b5cd3b6d9596a","session_id":"619bef06e9a252b640379807","condition":"full-information","relevant_dimensions":["wings","pattern"],"bee_group":{"antennae":"X","wings":"1","pattern":"D","legs":"X"},"bonus":1.3400000000000007},{"view_history":[{"page_index":0,"viewing_time":9936},{"page_index":1,"viewing_time":15712},{"page_index":2,"viewing_time":16134},{"page_index":3,"viewing_time":23648},{"page_index":4,"viewing_time":8647},{"page_index":5,"viewing_time":21351},{"page_index":6,"viewing_time":15718},{"page_index":7,"viewing_time":9991},{"page_index":8,"viewing_time":6418},{"page_index":9,"viewing_time":5503},{"page_index":10,"viewing_time":4586},{"page_index":11,"viewing_time":13444},{"page_index":12,"viewing_time":15338},{"page_index":13,"viewing_time":1252},{"page_index":14,"viewing_time":5636}],"rt":173314,"trial_type":"instructions","trial_index":3,"time_elapsed":194724,"internal_node_id":"0.0-3.0-0.0","subject_id":"605563e772e44013a0772597","study_id":"6197b3f67c2b5cd3b6d9596a","session_id":"619bef06e9a252b640379807","condition":"full-information","relevant_dimensions":["wings","pattern"],"bee_group":{"antennae":"X","wings":"1","pattern":"D","legs":"X"},"bonus":1.3400000000000007},{"rt":15028,"response":{"Q0":["Two or six legs","Stripes or spots on body","Single or double wings","Antennae or no antennae"]},"question_order":[0],"trial_type":"survey-multi-select","trial_index":4,"time_elapsed":209757,"internal_node_id":"0.0-3.0-1.0","subject_id":"605563e772e44013a0772597","study_id":"6197b3f67c2b5cd3b6d9596a","session_id":"619bef06e9a252b640379807","condition":"full-information","relevant_dimensions":["wings","pattern"],"bee_group":{"antennae":"X","wings":"1","pattern":"D","legs":"X"},"correct":true,"bonus":1.3400000000000007},{"rt":63305,"response":{"Q1":"No.","Q2":"Based on the order in which you see the bees.","Q3":"You do not learn if it was friendly or dangerous, and do not alter your bonus."},"question_order":[0,1,2],"trial_type":"survey-multi-choice","trial_index":5,"time_elapsed":273064,"internal_node_id":"0.0-3.0-2.0","subject_id":"605563e772e44013a0772597","study_id":"6197b3f67c2b5cd3b6d9596a","session_id":"619bef06e9a252b640379807","condition":"full-information","relevant_dimensions":["wings","pattern"],"bee_group":{"antennae":"X","wings":"1","pattern":"D","legs":"X"},"correct":false,"bonus":1.3400000000000007},{"rt":2210,"stimulus":"<p>You did not answer all comprehension questions correctly.<br>Press <b>continue</b> to review the instructions again.</p>","response":0,"trial_type":"html-button-response","trial_index":6,"time_elapsed":275276,"internal_node_id":"0.0-3.0-3.0","subject_id":"605563e772e44013a0772597","study_id":"6197b3f67c2b5cd3b6d9596a","session_id":"619bef06e9a252b640379807","condition":"full-information","relevant_dimensions":["wings","pattern"],"bee_group":{"antennae":"X","wings":"1","pattern":"D","legs":"X"},"bonus":1.3400000000000007},{"view_history":[{"page_index":0,"viewing_time":2509},{"page_index":1,"viewing_time":16414},{"page_index":2,"viewing_time":22414},{"page_index":3,"viewing_time":14857},{"page_index":4,"viewing_time":22995},{"page_index":5,"viewing_time":1237},{"page_index":4,"viewing_time":8717},{"page_index":5,"viewing_time":23622},{"page_index":6,"viewing_time":20302},{"page_index":7,"viewing_time":3318},{"page_index":8,"viewing_time":3548},{"page_index":9,"viewing_time":1802},{"page_index":10,"viewing_time":1582},{"page_index":11,"viewing_time":18402},{"page_index":12,"viewing_time":8414},{"page_index":13,"viewing_time":1108},{"page_index":14,"viewing_time":1534}],"rt":172775,"trial_type":"instructions","trial_index":7,"time_elapsed":448053,"internal_node_id":"0.0-3.0-4.0-0.0","subject_id":"605563e772e44013a0772597","study_id":"6197b3f67c2b5cd3b6d9596a","session_id":"619bef06e9a252b640379807","condition":"full-information","relevant_dimensions":["wings","pattern"],"bee_group":{"antennae":"X","wings":"1","pattern":"D","legs":"X"},"bonus":1.3400000000000007},{"rt":8585,"response":{"Q0":["Two or six legs","Stripes or spots on body","Single or double wings","Antennae or no antennae"]},"question_order":[0],"trial_type":"survey-multi-select","trial_index":8,"time_elapsed":456641,"internal_node_id":"0.0-3.0-4.0-1.0","subject_id":"605563e772e44013a0772597","study_id":"6197b3f67c2b5cd3b6d9596a","session_id":"619bef06e9a252b640379807","condition":"full-information","relevant_dimensions":["wings","pattern"],"bee_group":{"antennae":"X","wings":"1","pattern":"D","legs":"X"},"correct":true,"bonus":1.3400000000000007},{"rt":41262,"response":{"Q1":"No.","Q2":"Based on the four features of the bee.","Q3":"You learn if it was friendly or dangerous, but do not alter your bonus."},"question_order":[0,1,2],"trial_type":"survey-multi-choice","trial_index":9,"time_elapsed":497905,"internal_node_id":"0.0-3.0-4.0-2.0","subject_id":"605563e772e44013a0772597","study_id":"6197b3f67c2b5cd3b6d9596a","session_id":"619bef06e9a252b640379807","condition":"full-information","relevant_dimensions":["wings","pattern"],"bee_group":{"antennae":"X","wings":"1","pattern":"D","legs":"X"},"correct":true,"bonus":1.3400000000000007},{"rt":5406,"stimulus":"<p>Congrats, you got everything right<br>When you're ready, click the button below to continue to the experiment.</p>","response":0,"trial_type":"html-button-response","trial_index":10,"time_elapsed":503312,"internal_node_id":"0.0-3.0-4.0-3.0","subject_id":"605563e772e44013a0772597","study_id":"6197b3f67c2b5cd3b6d9596a","session_id":"619bef06e9a252b640379807","condition":"full-information","relevant_dimensions":["wings","pattern"],"bee_group":{"antennae":"X","wings":"1","pattern":"D","legs":"X"},"bonus":1.3400000000000007},{"rt":3626,"stimulus":"bees-with-color/bee-A2SM.svg","response":0,"trial_type":"image-button-response","trial_index":11,"time_elapsed":506940,"internal_node_id":"0.0-4.0-0.0","subject_id":"605563e772e44013a0772597","study_id":"6197b3f67c2b5cd3b6d9596a","session_id":"619bef06e9a252b640379807","condition":"full-information","relevant_dimensions":["wings","pattern"],"bee_group":{"antennae":"X","wings":"1","pattern":"D","legs":"X"},"action":"harvest","summary":"good-harvest","bonus":1.3400000000000007},{"rt":16602,"stimulus":"\n                    <p><b>Action: <em>harvest</em></b></p>\n                    <p>This is the bee that you just saw.</p>\n                    <img src=\"bees-with-color/bee-A2SM.svg\" width=\"200\">\n                    <p><span class=\"greenText\"><b>Successful harvest!</b></span><br>Your pay has increased by $0.02. Your bonus pay is now $0.56.</p>\n            ","response":0,"trial_type":"html-button-response","trial_index":12,"time_elapsed":523566,"internal_node_id":"0.0-4.0-1.0","subject_id":"605563e772e44013a0772597","study_id":"6197b3f67c2b5cd3b6d9596a","session_id":"619bef06e9a252b640379807","condition":"full-information","relevant_dimensions":["wings","pattern"],"bee_group":{"antennae":"X","wings":"1","pattern":"D","legs":"X"},"bonus":1.3400000000000007},{"rt":5618,"stimulus":"bees-with-color/bee-A1SF.svg","response":0,"trial_type":"image-button-response","trial_index":13,"time_elapsed":529188,"internal_node_id":"0.0-4.0-0.1","subject_id":"605563e772e44013a0772597","study_id":"6197b3f67c2b5cd3b6d9596a","session_id":"619bef06e9a252b640379807","condition":"full-information","relevant_dimensions":["wings","pattern"],"bee_group":{"antennae":"X","wings":"1","pattern":"D","legs":"X"},"action":"harvest","summary":"good-harvest","bonus":1.3400000000000007},{"rt":5519,"stimulus":"\n                    <p><b>Action: <em>harvest</em></b></p>\n                    <p>This is the bee that you just saw.</p>\n                    <img src=\"bees-with-color/bee-A1SF.svg\" width=\"200\">\n                    <p><span class=\"greenText\"><b>Successful harvest!</b></span><br>Your pay has increased by $0.02. Your bonus pay is now $0.58.</p>\n            ","response":0,"trial_type":"html-button-response","trial_index":14,"time_elapsed":534708,"internal_node_id":"0.0-4.0-1.1","subject_id":"605563e772e44013a0772597","study_id":"6197b3f67c2b5cd3b6d9596a","session_id":"619bef06e9a252b640379807","condition":"full-information","relevant_dimensions":["wings","pattern"],"bee_group":{"antennae":"X","wings":"1","pattern":"D","legs":"X"},"bonus":1.3400000000000007},{"rt":4060,"stimulus":"bees-with-color/bee-A1DF.svg","response":1,"trial_type":"image-button-response","trial_index":15,"time_elapsed":538770,"internal_node_id":"0.0-4.0-0.2","subject_id":"605563e772e44013a0772597","study_id":"6197b3f67c2b5cd3b6d9596a","session_id":"619bef06e9a252b640379807","condition":"full-information","relevant_dimensions":["wings","pattern"],"bee_group":{"antennae":"X","wings":"1","pattern":"D","legs":"X"},"action":"avoid","summary":"good-avoid","bonus":1.3400000000000007},{"rt":8972,"stimulus":"\n                    <p><b>Action: <em>avoid</em></b></p>\n                    <p>This is the bee that you just saw.</p>\n                    <img src=\"bees-with-color/bee-A1DF.svg\" width=\"200\">\n                    <p><span class=\"greenText\">Good choice!</span>  This bee would have stung you.<br>Your bonus pay is unchanged, and remains at $0.58.</p>\n            ","response":0,"trial_type":"html-button-response","trial_index":16,"time_elapsed":547744,"internal_node_id":"0.0-4.0-1.2","subject_id":"605563e772e44013a0772597","study_id":"6197b3f67c2b5cd3b6d9596a","session_id":"619bef06e9a252b640379807","condition":"full-information","relevant_dimensions":["wings","pattern"],"bee_group":{"antennae":"X","wings":"1","pattern":"D","legs":"X"},"bonus":1.3400000000000007},{"rt":3231,"stimulus":"bees-with-color/bee-A1SM.svg","response":0,"trial_type":"image-button-response","trial_index":17,"time_elapsed":550976,"internal_node_id":"0.0-4.0-0.3","subject_id":"605563e772e44013a0772597","study_id":"6197b3f67c2b5cd3b6d9596a","session_id":"619bef06e9a252b640379807","condition":"full-information","relevant_dimensions":["wings","pattern"],"bee_group":{"antennae":"X","wings":"1","pattern":"D","legs":"X"},"action":"harvest","summary":"good-harvest","bonus":1.3400000000000007},{"rt":4586,"stimulus":"\n                    <p><b>Action: <em>harvest</em></b></p>\n                    <p>This is the bee that you just saw.</p>\n                    <img src=\"bees-with-color/bee-A1SM.svg\" width=\"200\">\n                    <p><span class=\"greenText\"><b>Successful harvest!</b></span><br>Your pay has increased by $0.02. Your bonus pay is now $0.60.</p>\n            ","response":0,"trial_type":"html-button-response","trial_index":18,"time_elapsed":555564,"internal_node_id":"0.0-4.0-1.3","subject_id":"605563e772e44013a0772597","study_id":"6197b3f67c2b5cd3b6d9596a","session_id":"619bef06e9a252b640379807","condition":"full-information","relevant_dimensions":["wings","pattern"],"bee_group":{"antennae":"X","wings":"1","pattern":"D","legs":"X"},"bonus":1.3400000000000007},{"rt":6634,"stimulus":"bees-with-color/bee-B1DM.svg","response":1,"trial_type":"image-button-response","trial_index":19,"time_elapsed":562201,"internal_node_id":"0.0-4.0-0.4","subject_id":"605563e772e44013a0772597","study_id":"6197b3f67c2b5cd3b6d9596a","session_id":"619bef06e9a252b640379807","condition":"full-information","relevant_dimensions":["wings","pattern"],"bee_group":{"antennae":"X","wings":"1","pattern":"D","legs":"X"},"action":"avoid","summary":"good-avoid","bonus":1.3400000000000007},{"rt":6339,"stimulus":"\n                    <p><b>Action: <em>avoid</em></b></p>\n                    <p>This is the bee that you just saw.</p>\n                    <img src=\"bees-with-color/bee-B1DM.svg\" width=\"200\">\n                    <p><span class=\"greenText\">Good choice!</span>  This bee would have stung you.<br>Your bonus pay is unchanged, and remains at $0.60.</p>\n            ","response":0,"trial_type":"html-button-response","trial_index":20,"time_elapsed":568540,"internal_node_id":"0.0-4.0-1.4","subject_id":"605563e772e44013a0772597","study_id":"6197b3f67c2b5cd3b6d9596a","session_id":"619bef06e9a252b640379807","condition":"full-information","relevant_dimensions":["wings","pattern"],"bee_group":{"antennae":"X","wings":"1","pattern":"D","legs":"X"},"bonus":1.3400000000000007},{"rt":2137,"stimulus":"bees-with-color/bee-B2SM.svg","response":0,"trial_type":"image-button-response","trial_index":21,"time_elapsed":570678,"internal_node_id":"0.0-4.0-0.5","subject_id":"605563e772e44013a0772597","study_id":"6197b3f67c2b5cd3b6d9596a","session_id":"619bef06e9a252b640379807","condition":"full-information","relevant_dimensions":["wings","pattern"],"bee_group":{"antennae":"X","wings":"1","pattern":"D","legs":"X"},"action":"harvest","summary":"good-harvest","bonus":1.3400000000000007},{"rt":6016,"stimulus":"\n                    <p><b>Action: <em>harvest</em></b></p>\n                    <p>This is the bee that you just saw.</p>\n                    <img src=\"bees-with-color/bee-B2SM.svg\" width=\"200\">\n                    <p><span class=\"greenText\"><b>Successful harvest!</b></span><br>Your pay has increased by $0.02. Your bonus pay is now $0.62.</p>\n            ","response":0,"trial_type":"html-button-response","trial_index":22,"time_elapsed":576697,"internal_node_id":"0.0-4.0-1.5","subject_id":"605563e772e44013a0772597","study_id":"6197b3f67c2b5cd3b6d9596a","session_id":"619bef06e9a252b640379807","condition":"full-information","relevant_dimensions":["wings","pattern"],"bee_group":{"antennae":"X","wings":"1","pattern":"D","legs":"X"},"bonus":1.3400000000000007},{"rt":2814,"stimulus":"bees-with-color/bee-A2SF.svg","response":0,"trial_type":"image-button-response","trial_index":23,"time_elapsed":579512,"internal_node_id":"0.0-4.0-0.6","subject_id":"605563e772e44013a0772597","study_id":"6197b3f67c2b5cd3b6d9596a","session_id":"619bef06e9a252b640379807","condition":"full-information","relevant_dimensions":["wings","pattern"],"bee_group":{"antennae":"X","wings":"1","pattern":"D","legs":"X"},"action":"harvest","summary":"good-harvest","bonus":1.3400000000000007},{"rt":2890,"stimulus":"\n                    <p><b>Action: <em>harvest</em></b></p>\n                    <p>This is the bee that you just saw.</p>\n                    <img src=\"bees-with-color/bee-A2SF.svg\" width=\"200\">\n                    <p><span class=\"greenText\"><b>Successful harvest!</b></span><br>Your pay has increased by $0.02. Your bonus pay is now $0.64.</p>\n            ","response":0,"trial_type":"html-button-response","trial_index":24,"time_elapsed":582402,"internal_node_id":"0.0-4.0-1.6","subject_id":"605563e772e44013a0772597","study_id":"6197b3f67c2b5cd3b6d9596a","session_id":"619bef06e9a252b640379807","condition":"full-information","relevant_dimensions":["wings","pattern"],"bee_group":{"antennae":"X","wings":"1","pattern":"D","legs":"X"},"bonus":1.3400000000000007},{"rt":4826,"stimulus":"bees-with-color/bee-B1SM.svg","response":0,"trial_type":"image-button-response","trial_index":25,"time_elapsed":587230,"internal_node_id":"0.0-4.0-0.7","subject_id":"605563e772e44013a0772597","study_id":"6197b3f67c2b5cd3b6d9596a","session_id":"619bef06e9a252b640379807","condition":"full-information","relevant_dimensions":["wings","pattern"],"bee_group":{"antennae":"X","wings":"1","pattern":"D","legs":"X"},"action":"harvest","summary":"good-harvest","bonus":1.3400000000000007},{"rt":2327,"stimulus":"\n                    <p><b>Action: <em>harvest</em></b></p>\n                    <p>This is the bee that you just saw.</p>\n                    <img src=\"bees-with-color/bee-B1SM.svg\" width=\"200\">\n                    <p><span class=\"greenText\"><b>Successful harvest!</b></span><br>Your pay has increased by $0.02. Your bonus pay is now $0.66.</p>\n            ","response":0,"trial_type":"html-button-response","trial_index":26,"time_elapsed":589558,"internal_node_id":"0.0-4.0-1.7","subject_id":"605563e772e44013a0772597","study_id":"6197b3f67c2b5cd3b6d9596a","session_id":"619bef06e9a252b640379807","condition":"full-information","relevant_dimensions":["wings","pattern"],"bee_group":{"antennae":"X","wings":"1","pattern":"D","legs":"X"},"bonus":1.3400000000000007},{"rt":2095,"stimulus":"bees-with-color/bee-B2SF.svg","response":0,"trial_type":"image-button-response","trial_index":27,"time_elapsed":591655,"internal_node_id":"0.0-4.0-0.8","subject_id":"605563e772e44013a0772597","study_id":"6197b3f67c2b5cd3b6d9596a","session_id":"619bef06e9a252b640379807","condition":"full-information","relevant_dimensions":["wings","pattern"],"bee_group":{"antennae":"X","wings":"1","pattern":"D","legs":"X"},"action":"harvest","summary":"good-harvest","bonus":1.3400000000000007},{"rt":1405,"stimulus":"\n                    <p><b>Action: <em>harvest</em></b></p>\n                    <p>This is the bee that you just saw.</p>\n                    <img src=\"bees-with-color/bee-B2SF.svg\" width=\"200\">\n                    <p><span class=\"greenText\"><b>Successful harvest!</b></span><br>Your pay has increased by $0.02. Your bonus pay is now $0.68.</p>\n            ","response":0,"trial_type":"html-button-response","trial_index":28,"time_elapsed":593060,"internal_node_id":"0.0-4.0-1.8","subject_id":"605563e772e44013a0772597","study_id":"6197b3f67c2b5cd3b6d9596a","session_id":"619bef06e9a252b640379807","condition":"full-information","relevant_dimensions":["wings","pattern"],"bee_group":{"antennae":"X","wings":"1","pattern":"D","legs":"X"},"bonus":1.3400000000000007},{"rt":1099,"stimulus":"bees-with-color/bee-B2DM.svg","response":1,"trial_type":"image-button-response","trial_index":29,"time_elapsed":594160,"internal_node_id":"0.0-4.0-0.9","subject_id":"605563e772e44013a0772597","study_id":"6197b3f67c2b5cd3b6d9596a","session_id":"619bef06e9a252b640379807","condition":"full-information","relevant_dimensions":["wings","pattern"],"bee_group":{"antennae":"X","wings":"1","pattern":"D","legs":"X"},"action":"avoid","summary":"bad-avoid","bonus":1.3400000000000007},{"rt":9309,"stimulus":"\n                    <p><b>Action: <em>avoid</em></b></p>\n                    <p>This is the bee that you just saw.</p>\n                    <img src=\"bees-with-color/bee-B2DM.svg\" width=\"200\">\n                    <p><span class=\"redText\">Bad choice,</span> the bee was friendly.<br>Your bonus pay is unchanged, and remains at $0.68.</p>\n            ","response":0,"trial_type":"html-button-response","trial_index":30,"time_elapsed":603470,"internal_node_id":"0.0-4.0-1.9","subject_id":"605563e772e44013a0772597","study_id":"6197b3f67c2b5cd3b6d9596a","session_id":"619bef06e9a252b640379807","condition":"full-information","relevant_dimensions":["wings","pattern"],"bee_group":{"antennae":"X","wings":"1","pattern":"D","legs":"X"},"bonus":1.3400000000000007},{"rt":1709,"stimulus":"bees-with-color/bee-B1DF.svg","response":1,"trial_type":"image-button-response","trial_index":31,"time_elapsed":605180,"internal_node_id":"0.0-4.0-0.10","subject_id":"605563e772e44013a0772597","study_id":"6197b3f67c2b5cd3b6d9596a","session_id":"619bef06e9a252b640379807","condition":"full-information","relevant_dimensions":["wings","pattern"],"bee_group":{"antennae":"X","wings":"1","pattern":"D","legs":"X"},"action":"avoid","summary":"good-avoid","bonus":1.3400000000000007},{"rt":2161,"stimulus":"\n                    <p><b>Action: <em>avoid</em></b></p>\n                    <p>This is the bee that you just saw.</p>\n                    <img src=\"bees-with-color/bee-B1DF.svg\" width=\"200\">\n                    <p><span class=\"greenText\">Good choice!</span>  This bee would have stung you.<br>Your bonus pay is unchanged, and remains at $0.68.</p>\n            ","response":0,"trial_type":"html-button-response","trial_index":32,"time_elapsed":607344,"internal_node_id":"0.0-4.0-1.10","subject_id":"605563e772e44013a0772597","study_id":"6197b3f67c2b5cd3b6d9596a","session_id":"619bef06e9a252b640379807","condition":"full-information","relevant_dimensions":["wings","pattern"],"bee_group":{"antennae":"X","wings":"1","pattern":"D","legs":"X"},"bonus":1.3400000000000007},{"rt":2977,"stimulus":"bees-with-color/bee-A2DF.svg","response":1,"trial_type":"image-button-response","trial_index":33,"time_elapsed":610322,"internal_node_id":"0.0-4.0-0.11","subject_id":"605563e772e44013a0772597","study_id":"6197b3f67c2b5cd3b6d9596a","session_id":"619bef06e9a252b640379807","condition":"full-information","relevant_dimensions":["wings","pattern"],"bee_group":{"antennae":"X","wings":"1","pattern":"D","legs":"X"},"action":"avoid","summary":"bad-avoid","bonus":1.3400000000000007},{"rt":4292,"stimulus":"\n                    <p><b>Action: <em>avoid</em></b></p>\n                    <p>This is the bee that you just saw.</p>\n                    <img src=\"bees-with-color/bee-A2DF.svg\" width=\"200\">\n                    <p><span class=\"redText\">Bad choice,</span> the bee was friendly.<br>Your bonus pay is unchanged, and remains at $0.68.</p>\n            ","response":0,"trial_type":"html-button-response","trial_index":34,"time_elapsed":614617,"internal_node_id":"0.0-4.0-1.11","subject_id":"605563e772e44013a0772597","study_id":"6197b3f67c2b5cd3b6d9596a","session_id":"619bef06e9a252b640379807","condition":"full-information","relevant_dimensions":["wings","pattern"],"bee_group":{"antennae":"X","wings":"1","pattern":"D","legs":"X"},"bonus":1.3400000000000007},{"rt":5573,"stimulus":"bees-with-color/bee-A1DM.svg","response":1,"trial_type":"image-button-response","trial_index":35,"time_elapsed":620190,"internal_node_id":"0.0-4.0-0.12","subject_id":"605563e772e44013a0772597","study_id":"6197b3f67c2b5cd3b6d9596a","session_id":"619bef06e9a252b640379807","condition":"full-information","relevant_dimensions":["wings","pattern"],"bee_group":{"antennae":"X","wings":"1","pattern":"D","legs":"X"},"action":"avoid","summary":"good-avoid","bonus":1.3400000000000007},{"rt":1668,"stimulus":"\n                    <p><b>Action: <em>avoid</em></b></p>\n                    <p>This is the bee that you just saw.</p>\n                    <img src=\"bees-with-color/bee-A1DM.svg\" width=\"200\">\n                    <p><span class=\"greenText\">Good choice!</span>  This bee would have stung you.<br>Your bonus pay is unchanged, and remains at $0.68.</p>\n            ","response":0,"trial_type":"html-button-response","trial_index":36,"time_elapsed":621861,"internal_node_id":"0.0-4.0-1.12","subject_id":"605563e772e44013a0772597","study_id":"6197b3f67c2b5cd3b6d9596a","session_id":"619bef06e9a252b640379807","condition":"full-information","relevant_dimensions":["wings","pattern"],"bee_group":{"antennae":"X","wings":"1","pattern":"D","legs":"X"},"bonus":1.3400000000000007},{"rt":2133,"stimulus":"bees-with-color/bee-B2DF.svg","response":0,"trial_type":"image-button-response","trial_index":37,"time_elapsed":623994,"internal_node_id":"0.0-4.0-0.13","subject_id":"605563e772e44013a0772597","study_id":"6197b3f67c2b5cd3b6d9596a","session_id":"619bef06e9a252b640379807","condition":"full-information","relevant_dimensions":["wings","pattern"],"bee_group":{"antennae":"X","wings":"1","pattern":"D","legs":"X"},"action":"harvest","summary":"good-harvest","bonus":1.3400000000000007},{"rt":2726,"stimulus":"\n                    <p><b>Action: <em>harvest</em></b></p>\n                    <p>This is the bee that you just saw.</p>\n                    <img src=\"bees-with-color/bee-B2DF.svg\" width=\"200\">\n                    <p><span class=\"greenText\"><b>Successful harvest!</b></span><br>Your pay has increased by $0.02. Your bonus pay is now $0.70.</p>\n            ","response":0,"trial_type":"html-button-response","trial_index":38,"time_elapsed":626722,"internal_node_id":"0.0-4.0-1.13","subject_id":"605563e772e44013a0772597","study_id":"6197b3f67c2b5cd3b6d9596a","session_id":"619bef06e9a252b640379807","condition":"full-information","relevant_dimensions":["wings","pattern"],"bee_group":{"antennae":"X","wings":"1","pattern":"D","legs":"X"},"bonus":1.3400000000000007},{"rt":2049,"stimulus":"bees-with-color/bee-B1SF.svg","response":0,"trial_type":"image-button-response","trial_index":39,"time_elapsed":628772,"internal_node_id":"0.0-4.0-0.14","subject_id":"605563e772e44013a0772597","study_id":"6197b3f67c2b5cd3b6d9596a","session_id":"619bef06e9a252b640379807","condition":"full-information","relevant_dimensions":["wings","pattern"],"bee_group":{"antennae":"X","wings":"1","pattern":"D","legs":"X"},"action":"harvest","summary":"good-harvest","bonus":1.3400000000000007},{"rt":1685,"stimulus":"\n                    <p><b>Action: <em>harvest</em></b></p>\n                    <p>This is the bee that you just saw.</p>\n                    <img src=\"bees-with-color/bee-B1SF.svg\" width=\"200\">\n                    <p><span class=\"greenText\"><b>Successful harvest!</b></span><br>Your pay has increased by $0.02. Your bonus pay is now $0.72.</p>\n            ","response":0,"trial_type":"html-button-response","trial_index":40,"time_elapsed":630458,"internal_node_id":"0.0-4.0-1.14","subject_id":"605563e772e44013a0772597","study_id":"6197b3f67c2b5cd3b6d9596a","session_id":"619bef06e9a252b640379807","condition":"full-information","relevant_dimensions":["wings","pattern"],"bee_group":{"antennae":"X","wings":"1","pattern":"D","legs":"X"},"bonus":1.3400000000000007},{"rt":5679,"stimulus":"bees-with-color/bee-A2DM.svg","response":1,"trial_type":"image-button-response","trial_index":41,"time_elapsed":636138,"internal_node_id":"0.0-4.0-0.15","subject_id":"605563e772e44013a0772597","study_id":"6197b3f67c2b5cd3b6d9596a","session_id":"619bef06e9a252b640379807","condition":"full-information","relevant_dimensions":["wings","pattern"],"bee_group":{"antennae":"X","wings":"1","pattern":"D","legs":"X"},"action":"avoid","summary":"bad-avoid","bonus":1.3400000000000007},{"rt":1745,"stimulus":"\n                    <p><b>Action: <em>avoid</em></b></p>\n                    <p>This is the bee that you just saw.</p>\n                    <img src=\"bees-with-color/bee-A2DM.svg\" width=\"200\">\n                    <p><span class=\"redText\">Bad choice,</span> the bee was friendly.<br>Your bonus pay is unchanged, and remains at $0.72.</p>\n            ","response":0,"trial_type":"html-button-response","trial_index":42,"time_elapsed":637884,"internal_node_id":"0.0-4.0-1.15","subject_id":"605563e772e44013a0772597","study_id":"6197b3f67c2b5cd3b6d9596a","session_id":"619bef06e9a252b640379807","condition":"full-information","relevant_dimensions":["wings","pattern"],"bee_group":{"antennae":"X","wings":"1","pattern":"D","legs":"X"},"bonus":1.3400000000000007},{"rt":1735,"stimulus":"bees-with-color/bee-A2SM.svg","response":0,"trial_type":"image-button-response","trial_index":43,"time_elapsed":639620,"internal_node_id":"0.0-4.0-0.16","subject_id":"605563e772e44013a0772597","study_id":"6197b3f67c2b5cd3b6d9596a","session_id":"619bef06e9a252b640379807","condition":"full-information","relevant_dimensions":["wings","pattern"],"bee_group":{"antennae":"X","wings":"1","pattern":"D","legs":"X"},"action":"harvest","summary":"good-harvest","bonus":1.3400000000000007},{"rt":1324,"stimulus":"\n                    <p><b>Action: <em>harvest</em></b></p>\n                    <p>This is the bee that you just saw.</p>\n                    <img src=\"bees-with-color/bee-A2SM.svg\" width=\"200\">\n                    <p><span class=\"greenText\"><b>Successful harvest!</b></span><br>Your pay has increased by $0.02. Your bonus pay is now $0.74.</p>\n            ","response":0,"trial_type":"html-button-response","trial_index":44,"time_elapsed":640947,"internal_node_id":"0.0-4.0-1.16","subject_id":"605563e772e44013a0772597","study_id":"6197b3f67c2b5cd3b6d9596a","session_id":"619bef06e9a252b640379807","condition":"full-information","relevant_dimensions":["wings","pattern"],"bee_group":{"antennae":"X","wings":"1","pattern":"D","legs":"X"},"bonus":1.3400000000000007},{"rt":3879,"stimulus":"bees-with-color/bee-A2DF.svg","response":1,"trial_type":"image-button-response","trial_index":45,"time_elapsed":644827,"internal_node_id":"0.0-4.0-0.17","subject_id":"605563e772e44013a0772597","study_id":"6197b3f67c2b5cd3b6d9596a","session_id":"619bef06e9a252b640379807","condition":"full-information","relevant_dimensions":["wings","pattern"],"bee_group":{"antennae":"X","wings":"1","pattern":"D","legs":"X"},"action":"avoid","summary":"bad-avoid","bonus":1.3400000000000007},{"rt":1310,"stimulus":"\n                    <p><b>Action: <em>avoid</em></b></p>\n                    <p>This is the bee that you just saw.</p>\n                    <img src=\"bees-with-color/bee-A2DF.svg\" width=\"200\">\n                    <p><span class=\"redText\">Bad choice,</span> the bee was friendly.<br>Your bonus pay is unchanged, and remains at $0.74.</p>\n            ","response":0,"trial_type":"html-button-response","trial_index":46,"time_elapsed":646138,"internal_node_id":"0.0-4.0-1.17","subject_id":"605563e772e44013a0772597","study_id":"6197b3f67c2b5cd3b6d9596a","session_id":"619bef06e9a252b640379807","condition":"full-information","relevant_dimensions":["wings","pattern"],"bee_group":{"antennae":"X","wings":"1","pattern":"D","legs":"X"},"bonus":1.3400000000000007},{"rt":1708,"stimulus":"bees-with-color/bee-B1SM.svg","response":0,"trial_type":"image-button-response","trial_index":47,"time_elapsed":647847,"internal_node_id":"0.0-4.0-0.18","subject_id":"605563e772e44013a0772597","study_id":"6197b3f67c2b5cd3b6d9596a","session_id":"619bef06e9a252b640379807","condition":"full-information","relevant_dimensions":["wings","pattern"],"bee_group":{"antennae":"X","wings":"1","pattern":"D","legs":"X"},"action":"harvest","summary":"good-harvest","bonus":1.3400000000000007},{"rt":1170,"stimulus":"\n                    <p><b>Action: <em>harvest</em></b></p>\n                    <p>This is the bee that you just saw.</p>\n                    <img src=\"bees-with-color/bee-B1SM.svg\" width=\"200\">\n                    <p><span class=\"greenText\"><b>Successful harvest!</b></span><br>Your pay has increased by $0.02. Your bonus pay is now $0.76.</p>\n            ","response":0,"trial_type":"html-button-response","trial_index":48,"time_elapsed":649019,"internal_node_id":"0.0-4.0-1.18","subject_id":"605563e772e44013a0772597","study_id":"6197b3f67c2b5cd3b6d9596a","session_id":"619bef06e9a252b640379807","condition":"full-information","relevant_dimensions":["wings","pattern"],"bee_group":{"antennae":"X","wings":"1","pattern":"D","legs":"X"},"bonus":1.3400000000000007},{"rt":2133,"stimulus":"bees-with-color/bee-B1DF.svg","response":1,"trial_type":"image-button-response","trial_index":49,"time_elapsed":651152,"internal_node_id":"0.0-4.0-0.19","subject_id":"605563e772e44013a0772597","study_id":"6197b3f67c2b5cd3b6d9596a","session_id":"619bef06e9a252b640379807","condition":"full-information","relevant_dimensions":["wings","pattern"],"bee_group":{"antennae":"X","wings":"1","pattern":"D","legs":"X"},"action":"avoid","summary":"good-avoid","bonus":1.3400000000000007},{"rt":1373,"stimulus":"\n                    <p><b>Action: <em>avoid</em></b></p>\n                    <p>This is the bee that you just saw.</p>\n                    <img src=\"bees-with-color/bee-B1DF.svg\" width=\"200\">\n                    <p><span class=\"greenText\">Good choice!</span>  This bee would have stung you.<br>Your bonus pay is unchanged, and remains at $0.76.</p>\n            ","response":0,"trial_type":"html-button-response","trial_index":50,"time_elapsed":652527,"internal_node_id":"0.0-4.0-1.19","subject_id":"605563e772e44013a0772597","study_id":"6197b3f67c2b5cd3b6d9596a","session_id":"619bef06e9a252b640379807","condition":"full-information","relevant_dimensions":["wings","pattern"],"bee_group":{"antennae":"X","wings":"1","pattern":"D","legs":"X"},"bonus":1.3400000000000007},{"rt":5304,"stimulus":"bees-with-color/bee-B1DM.svg","response":1,"trial_type":"image-button-response","trial_index":51,"time_elapsed":657832,"internal_node_id":"0.0-4.0-0.20","subject_id":"605563e772e44013a0772597","study_id":"6197b3f67c2b5cd3b6d9596a","session_id":"619bef06e9a252b640379807","condition":"full-information","relevant_dimensions":["wings","pattern"],"bee_group":{"antennae":"X","wings":"1","pattern":"D","legs":"X"},"action":"avoid","summary":"good-avoid","bonus":1.3400000000000007},{"rt":1181,"stimulus":"\n                    <p><b>Action: <em>avoid</em></b></p>\n                    <p>This is the bee that you just saw.</p>\n                    <img src=\"bees-with-color/bee-B1DM.svg\" width=\"200\">\n                    <p><span class=\"greenText\">Good choice!</span>  This bee would have stung you.<br>Your bonus pay is unchanged, and remains at $0.76.</p>\n            ","response":0,"trial_type":"html-button-response","trial_index":52,"time_elapsed":659014,"internal_node_id":"0.0-4.0-1.20","subject_id":"605563e772e44013a0772597","study_id":"6197b3f67c2b5cd3b6d9596a","session_id":"619bef06e9a252b640379807","condition":"full-information","relevant_dimensions":["wings","pattern"],"bee_group":{"antennae":"X","wings":"1","pattern":"D","legs":"X"},"bonus":1.3400000000000007},{"rt":1184,"stimulus":"bees-with-color/bee-A2SF.svg","response":0,"trial_type":"image-button-response","trial_index":53,"time_elapsed":660200,"internal_node_id":"0.0-4.0-0.21","subject_id":"605563e772e44013a0772597","study_id":"6197b3f67c2b5cd3b6d9596a","session_id":"619bef06e9a252b640379807","condition":"full-information","relevant_dimensions":["wings","pattern"],"bee_group":{"antennae":"X","wings":"1","pattern":"D","legs":"X"},"action":"harvest","summary":"good-harvest","bonus":1.3400000000000007},{"rt":1115,"stimulus":"\n                    <p><b>Action: <em>harvest</em></b></p>\n                    <p>This is the bee that you just saw.</p>\n                    <img src=\"bees-with-color/bee-A2SF.svg\" width=\"200\">\n                    <p><span class=\"greenText\"><b>Successful harvest!</b></span><br>Your pay has increased by $0.02. Your bonus pay is now $0.78.</p>\n            ","response":0,"trial_type":"html-button-response","trial_index":54,"time_elapsed":661316,"internal_node_id":"0.0-4.0-1.21","subject_id":"605563e772e44013a0772597","study_id":"6197b3f67c2b5cd3b6d9596a","session_id":"619bef06e9a252b640379807","condition":"full-information","relevant_dimensions":["wings","pattern"],"bee_group":{"antennae":"X","wings":"1","pattern":"D","legs":"X"},"bonus":1.3400000000000007},{"rt":1011,"stimulus":"bees-with-color/bee-A1SM.svg","response":0,"trial_type":"image-button-response","trial_index":55,"time_elapsed":662329,"internal_node_id":"0.0-4.0-0.22","subject_id":"605563e772e44013a0772597","study_id":"6197b3f67c2b5cd3b6d9596a","session_id":"619bef06e9a252b640379807","condition":"full-information","relevant_dimensions":["wings","pattern"],"bee_group":{"antennae":"X","wings":"1","pattern":"D","legs":"X"},"action":"harvest","summary":"good-harvest","bonus":1.3400000000000007},{"rt":862,"stimulus":"\n                    <p><b>Action: <em>harvest</em></b></p>\n                    <p>This is the bee that you just saw.</p>\n                    <img src=\"bees-with-color/bee-A1SM.svg\" width=\"200\">\n                    <p><span class=\"greenText\"><b>Successful harvest!</b></span><br>Your pay has increased by $0.02. Your bonus pay is now $0.80.</p>\n            ","response":0,"trial_type":"html-button-response","trial_index":56,"time_elapsed":663192,"internal_node_id":"0.0-4.0-1.22","subject_id":"605563e772e44013a0772597","study_id":"6197b3f67c2b5cd3b6d9596a","session_id":"619bef06e9a252b640379807","condition":"full-information","relevant_dimensions":["wings","pattern"],"bee_group":{"antennae":"X","wings":"1","pattern":"D","legs":"X"},"bonus":1.3400000000000007},{"rt":2075,"stimulus":"bees-with-color/bee-A2DM.svg","response":0,"trial_type":"image-button-response","trial_index":57,"time_elapsed":665270,"internal_node_id":"0.0-4.0-0.23","subject_id":"605563e772e44013a0772597","study_id":"6197b3f67c2b5cd3b6d9596a","session_id":"619bef06e9a252b640379807","condition":"full-information","relevant_dimensions":["wings","pattern"],"bee_group":{"antennae":"X","wings":"1","pattern":"D","legs":"X"},"action":"harvest","summary":"good-harvest","bonus":1.3400000000000007},{"rt":954,"stimulus":"\n                    <p><b>Action: <em>harvest</em></b></p>\n                    <p>This is the bee that you just saw.</p>\n                    <img src=\"bees-with-color/bee-A2DM.svg\" width=\"200\">\n                    <p><span class=\"greenText\"><b>Successful harvest!</b></span><br>Your pay has increased by $0.02. Your bonus pay is now $0.82.</p>\n            ","response":0,"trial_type":"html-button-response","trial_index":58,"time_elapsed":666227,"internal_node_id":"0.0-4.0-1.23","subject_id":"605563e772e44013a0772597","study_id":"6197b3f67c2b5cd3b6d9596a","session_id":"619bef06e9a252b640379807","condition":"full-information","relevant_dimensions":["wings","pattern"],"bee_group":{"antennae":"X","wings":"1","pattern":"D","legs":"X"},"bonus":1.3400000000000007},{"rt":3246,"stimulus":"bees-with-color/bee-B2DF.svg","response":1,"trial_type":"image-button-response","trial_index":59,"time_elapsed":669473,"internal_node_id":"0.0-4.0-0.24","subject_id":"605563e772e44013a0772597","study_id":"6197b3f67c2b5cd3b6d9596a","session_id":"619bef06e9a252b640379807","condition":"full-information","relevant_dimensions":["wings","pattern"],"bee_group":{"antennae":"X","wings":"1","pattern":"D","legs":"X"},"action":"avoid","summary":"bad-avoid","bonus":1.3400000000000007},{"rt":1012,"stimulus":"\n                    <p><b>Action: <em>avoid</em></b></p>\n                    <p>This is the bee that you just saw.</p>\n                    <img src=\"bees-with-color/bee-B2DF.svg\" width=\"200\">\n                    <p><span class=\"redText\">Bad choice,</span> the bee was friendly.<br>Your bonus pay is unchanged, and remains at $0.82.</p>\n            ","response":0,"trial_type":"html-button-response","trial_index":60,"time_elapsed":670487,"internal_node_id":"0.0-4.0-1.24","subject_id":"605563e772e44013a0772597","study_id":"6197b3f67c2b5cd3b6d9596a","session_id":"619bef06e9a252b640379807","condition":"full-information","relevant_dimensions":["wings","pattern"],"bee_group":{"antennae":"X","wings":"1","pattern":"D","legs":"X"},"bonus":1.3400000000000007},{"rt":1409,"stimulus":"bees-with-color/bee-B2SF.svg","response":0,"trial_type":"image-button-response","trial_index":61,"time_elapsed":671896,"internal_node_id":"0.0-4.0-0.25","subject_id":"605563e772e44013a0772597","study_id":"6197b3f67c2b5cd3b6d9596a","session_id":"619bef06e9a252b640379807","condition":"full-information","relevant_dimensions":["wings","pattern"],"bee_group":{"antennae":"X","wings":"1","pattern":"D","legs":"X"},"action":"harvest","summary":"good-harvest","bonus":1.3400000000000007},{"rt":879,"stimulus":"\n                    <p><b>Action: <em>harvest</em></b></p>\n                    <p>This is the bee that you just saw.</p>\n                    <img src=\"bees-with-color/bee-B2SF.svg\" width=\"200\">\n                    <p><span class=\"greenText\"><b>Successful harvest!</b></span><br>Your pay has increased by $0.02. Your bonus pay is now $0.84.</p>\n            ","response":0,"trial_type":"html-button-response","trial_index":62,"time_elapsed":672776,"internal_node_id":"0.0-4.0-1.25","subject_id":"605563e772e44013a0772597","study_id":"6197b3f67c2b5cd3b6d9596a","session_id":"619bef06e9a252b640379807","condition":"full-information","relevant_dimensions":["wings","pattern"],"bee_group":{"antennae":"X","wings":"1","pattern":"D","legs":"X"},"bonus":1.3400000000000007},{"rt":5046,"stimulus":"bees-with-color/bee-B2SM.svg","response":0,"trial_type":"image-button-response","trial_index":63,"time_elapsed":677825,"internal_node_id":"0.0-4.0-0.26","subject_id":"605563e772e44013a0772597","study_id":"6197b3f67c2b5cd3b6d9596a","session_id":"619bef06e9a252b640379807","condition":"full-information","relevant_dimensions":["wings","pattern"],"bee_group":{"antennae":"X","wings":"1","pattern":"D","legs":"X"},"action":"harvest","summary":"good-harvest","bonus":1.3400000000000007},{"rt":744,"stimulus":"\n                    <p><b>Action: <em>harvest</em></b></p>\n                    <p>This is the bee that you just saw.</p>\n                    <img src=\"bees-with-color/bee-B2SM.svg\" width=\"200\">\n                    <p><span class=\"greenText\"><b>Successful harvest!</b></span><br>Your pay has increased by $0.02. Your bonus pay is now $0.86.</p>\n            ","response":0,"trial_type":"html-button-response","trial_index":64,"time_elapsed":678570,"internal_node_id":"0.0-4.0-1.26","subject_id":"605563e772e44013a0772597","study_id":"6197b3f67c2b5cd3b6d9596a","session_id":"619bef06e9a252b640379807","condition":"full-information","relevant_dimensions":["wings","pattern"],"bee_group":{"antennae":"X","wings":"1","pattern":"D","legs":"X"},"bonus":1.3400000000000007},{"rt":943,"stimulus":"bees-with-color/bee-B1SF.svg","response":0,"trial_type":"image-button-response","trial_index":65,"time_elapsed":679514,"internal_node_id":"0.0-4.0-0.27","subject_id":"605563e772e44013a0772597","study_id":"6197b3f67c2b5cd3b6d9596a","session_id":"619bef06e9a252b640379807","condition":"full-information","relevant_dimensions":["wings","pattern"],"bee_group":{"antennae":"X","wings":"1","pattern":"D","legs":"X"},"action":"harvest","summary":"good-harvest","bonus":1.3400000000000007},{"rt":788,"stimulus":"\n                    <p><b>Action: <em>harvest</em></b></p>\n                    <p>This is the bee that you just saw.</p>\n                    <img src=\"bees-with-color/bee-B1SF.svg\" width=\"200\">\n                    <p><span class=\"greenText\"><b>Successful harvest!</b></span><br>Your pay has increased by $0.02. Your bonus pay is now $0.88.</p>\n            ","response":0,"trial_type":"html-button-response","trial_index":66,"time_elapsed":680304,"internal_node_id":"0.0-4.0-1.27","subject_id":"605563e772e44013a0772597","study_id":"6197b3f67c2b5cd3b6d9596a","session_id":"619bef06e9a252b640379807","condition":"full-information","relevant_dimensions":["wings","pattern"],"bee_group":{"antennae":"X","wings":"1","pattern":"D","legs":"X"},"bonus":1.3400000000000007},{"rt":1450,"stimulus":"bees-with-color/bee-A1DM.svg","response":1,"trial_type":"image-button-response","trial_index":67,"time_elapsed":681757,"internal_node_id":"0.0-4.0-0.28","subject_id":"605563e772e44013a0772597","study_id":"6197b3f67c2b5cd3b6d9596a","session_id":"619bef06e9a252b640379807","condition":"full-information","relevant_dimensions":["wings","pattern"],"bee_group":{"antennae":"X","wings":"1","pattern":"D","legs":"X"},"action":"avoid","summary":"good-avoid","bonus":1.3400000000000007},{"rt":970,"stimulus":"\n                    <p><b>Action: <em>avoid</em></b></p>\n                    <p>This is the bee that you just saw.</p>\n                    <img src=\"bees-with-color/bee-A1DM.svg\" width=\"200\">\n                    <p><span class=\"greenText\">Good choice!</span>  This bee would have stung you.<br>Your bonus pay is unchanged, and remains at $0.88.</p>\n            ","response":0,"trial_type":"html-button-response","trial_index":68,"time_elapsed":682728,"internal_node_id":"0.0-4.0-1.28","subject_id":"605563e772e44013a0772597","study_id":"6197b3f67c2b5cd3b6d9596a","session_id":"619bef06e9a252b640379807","condition":"full-information","relevant_dimensions":["wings","pattern"],"bee_group":{"antennae":"X","wings":"1","pattern":"D","legs":"X"},"bonus":1.3400000000000007},{"rt":1613,"stimulus":"bees-with-color/bee-B2DM.svg","response":0,"trial_type":"image-button-response","trial_index":69,"time_elapsed":684342,"internal_node_id":"0.0-4.0-0.29","subject_id":"605563e772e44013a0772597","study_id":"6197b3f67c2b5cd3b6d9596a","session_id":"619bef06e9a252b640379807","condition":"full-information","relevant_dimensions":["wings","pattern"],"bee_group":{"antennae":"X","wings":"1","pattern":"D","legs":"X"},"action":"harvest","summary":"good-harvest","bonus":1.3400000000000007},{"rt":717,"stimulus":"\n                    <p><b>Action: <em>harvest</em></b></p>\n                    <p>This is the bee that you just saw.</p>\n                    <img src=\"bees-with-color/bee-B2DM.svg\" width=\"200\">\n                    <p><span class=\"greenText\"><b>Successful harvest!</b></span><br>Your pay has increased by $0.02. Your bonus pay is now $0.90.</p>\n            ","response":0,"trial_type":"html-button-response","trial_index":70,"time_elapsed":685060,"internal_node_id":"0.0-4.0-1.29","subject_id":"605563e772e44013a0772597","study_id":"6197b3f67c2b5cd3b6d9596a","session_id":"619bef06e9a252b640379807","condition":"full-information","relevant_dimensions":["wings","pattern"],"bee_group":{"antennae":"X","wings":"1","pattern":"D","legs":"X"},"bonus":1.3400000000000007},{"rt":1090,"stimulus":"bees-with-color/bee-A1SF.svg","response":0,"trial_type":"image-button-response","trial_index":71,"time_elapsed":686152,"internal_node_id":"0.0-4.0-0.30","subject_id":"605563e772e44013a0772597","study_id":"6197b3f67c2b5cd3b6d9596a","session_id":"619bef06e9a252b640379807","condition":"full-information","relevant_dimensions":["wings","pattern"],"bee_group":{"antennae":"X","wings":"1","pattern":"D","legs":"X"},"action":"harvest","summary":"good-harvest","bonus":1.3400000000000007},{"rt":850,"stimulus":"\n                    <p><b>Action: <em>harvest</em></b></p>\n                    <p>This is the bee that you just saw.</p>\n                    <img src=\"bees-with-color/bee-A1SF.svg\" width=\"200\">\n                    <p><span class=\"greenText\"><b>Successful harvest!</b></span><br>Your pay has increased by $0.02. Your bonus pay is now $0.92.</p>\n            ","response":0,"trial_type":"html-button-response","trial_index":72,"time_elapsed":687004,"internal_node_id":"0.0-4.0-1.30","subject_id":"605563e772e44013a0772597","study_id":"6197b3f67c2b5cd3b6d9596a","session_id":"619bef06e9a252b640379807","condition":"full-information","relevant_dimensions":["wings","pattern"],"bee_group":{"antennae":"X","wings":"1","pattern":"D","legs":"X"},"bonus":1.3400000000000007},{"rt":1262,"stimulus":"bees-with-color/bee-A1DF.svg","response":1,"trial_type":"image-button-response","trial_index":73,"time_elapsed":688268,"internal_node_id":"0.0-4.0-0.31","subject_id":"605563e772e44013a0772597","study_id":"6197b3f67c2b5cd3b6d9596a","session_id":"619bef06e9a252b640379807","condition":"full-information","relevant_dimensions":["wings","pattern"],"bee_group":{"antennae":"X","wings":"1","pattern":"D","legs":"X"},"action":"avoid","summary":"good-avoid","bonus":1.3400000000000007},{"rt":753,"stimulus":"\n                    <p><b>Action: <em>avoid</em></b></p>\n                    <p>This is the bee that you just saw.</p>\n                    <img src=\"bees-with-color/bee-A1DF.svg\" width=\"200\">\n                    <p><span class=\"greenText\">Good choice!</span>  This bee would have stung you.<br>Your bonus pay is unchanged, and remains at $0.92.</p>\n            ","response":0,"trial_type":"html-button-response","trial_index":74,"time_elapsed":689022,"internal_node_id":"0.0-4.0-1.31","subject_id":"605563e772e44013a0772597","study_id":"6197b3f67c2b5cd3b6d9596a","session_id":"619bef06e9a252b640379807","condition":"full-information","relevant_dimensions":["wings","pattern"],"bee_group":{"antennae":"X","wings":"1","pattern":"D","legs":"X"},"bonus":1.3400000000000007},{"rt":3142,"stimulus":"bees-with-color/bee-B2DF.svg","response":1,"trial_type":"image-button-response","trial_index":75,"time_elapsed":692166,"internal_node_id":"0.0-4.0-0.32","subject_id":"605563e772e44013a0772597","study_id":"6197b3f67c2b5cd3b6d9596a","session_id":"619bef06e9a252b640379807","condition":"full-information","relevant_dimensions":["wings","pattern"],"bee_group":{"antennae":"X","wings":"1","pattern":"D","legs":"X"},"action":"avoid","summary":"bad-avoid","bonus":1.3400000000000007},{"rt":1360,"stimulus":"\n                    <p><b>Action: <em>avoid</em></b></p>\n                    <p>This is the bee that you just saw.</p>\n                    <img src=\"bees-with-color/bee-B2DF.svg\" width=\"200\">\n                    <p><span class=\"redText\">Bad choice,</span> the bee was friendly.<br>Your bonus pay is unchanged, and remains at $0.92.</p>\n            ","response":0,"trial_type":"html-button-response","trial_index":76,"time_elapsed":693529,"internal_node_id":"0.0-4.0-1.32","subject_id":"605563e772e44013a0772597","study_id":"6197b3f67c2b5cd3b6d9596a","session_id":"619bef06e9a252b640379807","condition":"full-information","relevant_dimensions":["wings","pattern"],"bee_group":{"antennae":"X","wings":"1","pattern":"D","legs":"X"},"bonus":1.3400000000000007},{"rt":1328,"stimulus":"bees-with-color/bee-A1DM.svg","response":1,"trial_type":"image-button-response","trial_index":77,"time_elapsed":694858,"internal_node_id":"0.0-4.0-0.33","subject_id":"605563e772e44013a0772597","study_id":"6197b3f67c2b5cd3b6d9596a","session_id":"619bef06e9a252b640379807","condition":"full-information","relevant_dimensions":["wings","pattern"],"bee_group":{"antennae":"X","wings":"1","pattern":"D","legs":"X"},"action":"avoid","summary":"good-avoid","bonus":1.3400000000000007},{"rt":622,"stimulus":"\n                    <p><b>Action: <em>avoid</em></b></p>\n                    <p>This is the bee that you just saw.</p>\n                    <img src=\"bees-with-color/bee-A1DM.svg\" width=\"200\">\n                    <p><span class=\"greenText\">Good choice!</span>  This bee would have stung you.<br>Your bonus pay is unchanged, and remains at $0.92.</p>\n            ","response":0,"trial_type":"html-button-response","trial_index":78,"time_elapsed":695482,"internal_node_id":"0.0-4.0-1.33","subject_id":"605563e772e44013a0772597","study_id":"6197b3f67c2b5cd3b6d9596a","session_id":"619bef06e9a252b640379807","condition":"full-information","relevant_dimensions":["wings","pattern"],"bee_group":{"antennae":"X","wings":"1","pattern":"D","legs":"X"},"bonus":1.3400000000000007},{"rt":886,"stimulus":"bees-with-color/bee-B2SF.svg","response":0,"trial_type":"image-button-response","trial_index":79,"time_elapsed":696370,"internal_node_id":"0.0-4.0-0.34","subject_id":"605563e772e44013a0772597","study_id":"6197b3f67c2b5cd3b6d9596a","session_id":"619bef06e9a252b640379807","condition":"full-information","relevant_dimensions":["wings","pattern"],"bee_group":{"antennae":"X","wings":"1","pattern":"D","legs":"X"},"action":"harvest","summary":"good-harvest","bonus":1.3400000000000007},{"rt":995,"stimulus":"\n                    <p><b>Action: <em>harvest</em></b></p>\n                    <p>This is the bee that you just saw.</p>\n                    <img src=\"bees-with-color/bee-B2SF.svg\" width=\"200\">\n                    <p><span class=\"greenText\"><b>Successful harvest!</b></span><br>Your pay has increased by $0.02. Your bonus pay is now $0.94.</p>\n            ","response":0,"trial_type":"html-button-response","trial_index":80,"time_elapsed":697367,"internal_node_id":"0.0-4.0-1.34","subject_id":"605563e772e44013a0772597","study_id":"6197b3f67c2b5cd3b6d9596a","session_id":"619bef06e9a252b640379807","condition":"full-information","relevant_dimensions":["wings","pattern"],"bee_group":{"antennae":"X","wings":"1","pattern":"D","legs":"X"},"bonus":1.3400000000000007},{"rt":2308,"stimulus":"bees-with-color/bee-A2DM.svg","response":0,"trial_type":"image-button-response","trial_index":81,"time_elapsed":699676,"internal_node_id":"0.0-4.0-0.35","subject_id":"605563e772e44013a0772597","study_id":"6197b3f67c2b5cd3b6d9596a","session_id":"619bef06e9a252b640379807","condition":"full-information","relevant_dimensions":["wings","pattern"],"bee_group":{"antennae":"X","wings":"1","pattern":"D","legs":"X"},"action":"harvest","summary":"good-harvest","bonus":1.3400000000000007},{"rt":760,"stimulus":"\n                    <p><b>Action: <em>harvest</em></b></p>\n                    <p>This is the bee that you just saw.</p>\n                    <img src=\"bees-with-color/bee-A2DM.svg\" width=\"200\">\n                    <p><span class=\"greenText\"><b>Successful harvest!</b></span><br>Your pay has increased by $0.02. Your bonus pay is now $0.96.</p>\n            ","response":0,"trial_type":"html-button-response","trial_index":82,"time_elapsed":700438,"internal_node_id":"0.0-4.0-1.35","subject_id":"605563e772e44013a0772597","study_id":"6197b3f67c2b5cd3b6d9596a","session_id":"619bef06e9a252b640379807","condition":"full-information","relevant_dimensions":["wings","pattern"],"bee_group":{"antennae":"X","wings":"1","pattern":"D","legs":"X"},"bonus":1.3400000000000007},{"rt":1035,"stimulus":"bees-with-color/bee-A1DF.svg","response":1,"trial_type":"image-button-response","trial_index":83,"time_elapsed":701474,"internal_node_id":"0.0-4.0-0.36","subject_id":"605563e772e44013a0772597","study_id":"6197b3f67c2b5cd3b6d9596a","session_id":"619bef06e9a252b640379807","condition":"full-information","relevant_dimensions":["wings","pattern"],"bee_group":{"antennae":"X","wings":"1","pattern":"D","legs":"X"},"action":"avoid","summary":"good-avoid","bonus":1.3400000000000007},{"rt":1999,"stimulus":"\n                    <p><b>Action: <em>avoid</em></b></p>\n                    <p>This is the bee that you just saw.</p>\n                    <img src=\"bees-with-color/bee-A1DF.svg\" width=\"200\">\n                    <p><span class=\"greenText\">Good choice!</span>  This bee would have stung you.<br>Your bonus pay is unchanged, and remains at $0.96.</p>\n            ","response":0,"trial_type":"html-button-response","trial_index":84,"time_elapsed":703474,"internal_node_id":"0.0-4.0-1.36","subject_id":"605563e772e44013a0772597","study_id":"6197b3f67c2b5cd3b6d9596a","session_id":"619bef06e9a252b640379807","condition":"full-information","relevant_dimensions":["wings","pattern"],"bee_group":{"antennae":"X","wings":"1","pattern":"D","legs":"X"},"bonus":1.3400000000000007},{"rt":2685,"stimulus":"bees-with-color/bee-B2DM.svg","response":0,"trial_type":"image-button-response","trial_index":85,"time_elapsed":706160,"internal_node_id":"0.0-4.0-0.37","subject_id":"605563e772e44013a0772597","study_id":"6197b3f67c2b5cd3b6d9596a","session_id":"619bef06e9a252b640379807","condition":"full-information","relevant_dimensions":["wings","pattern"],"bee_group":{"antennae":"X","wings":"1","pattern":"D","legs":"X"},"action":"harvest","summary":"good-harvest","bonus":1.3400000000000007},{"rt":1053,"stimulus":"\n                    <p><b>Action: <em>harvest</em></b></p>\n                    <p>This is the bee that you just saw.</p>\n                    <img src=\"bees-with-color/bee-B2DM.svg\" width=\"200\">\n                    <p><span class=\"greenText\"><b>Successful harvest!</b></span><br>Your pay has increased by $0.02. Your bonus pay is now $0.98.</p>\n            ","response":0,"trial_type":"html-button-response","trial_index":86,"time_elapsed":707215,"internal_node_id":"0.0-4.0-1.37","subject_id":"605563e772e44013a0772597","study_id":"6197b3f67c2b5cd3b6d9596a","session_id":"619bef06e9a252b640379807","condition":"full-information","relevant_dimensions":["wings","pattern"],"bee_group":{"antennae":"X","wings":"1","pattern":"D","legs":"X"},"bonus":1.3400000000000007},{"rt":1913,"stimulus":"bees-with-color/bee-A2DF.svg","response":1,"trial_type":"image-button-response","trial_index":87,"time_elapsed":709128,"internal_node_id":"0.0-4.0-0.38","subject_id":"605563e772e44013a0772597","study_id":"6197b3f67c2b5cd3b6d9596a","session_id":"619bef06e9a252b640379807","condition":"full-information","relevant_dimensions":["wings","pattern"],"bee_group":{"antennae":"X","wings":"1","pattern":"D","legs":"X"},"action":"avoid","summary":"bad-avoid","bonus":1.3400000000000007},{"rt":741,"stimulus":"\n                    <p><b>Action: <em>avoid</em></b></p>\n                    <p>This is the bee that you just saw.</p>\n                    <img src=\"bees-with-color/bee-A2DF.svg\" width=\"200\">\n                    <p><span class=\"redText\">Bad choice,</span> the bee was friendly.<br>Your bonus pay is unchanged, and remains at $0.98.</p>\n            ","response":0,"trial_type":"html-button-response","trial_index":88,"time_elapsed":709870,"internal_node_id":"0.0-4.0-1.38","subject_id":"605563e772e44013a0772597","study_id":"6197b3f67c2b5cd3b6d9596a","session_id":"619bef06e9a252b640379807","condition":"full-information","relevant_dimensions":["wings","pattern"],"bee_group":{"antennae":"X","wings":"1","pattern":"D","legs":"X"},"bonus":1.3400000000000007},{"rt":759,"stimulus":"bees-with-color/bee-B1SM.svg","response":0,"trial_type":"image-button-response","trial_index":89,"time_elapsed":710630,"internal_node_id":"0.0-4.0-0.39","subject_id":"605563e772e44013a0772597","study_id":"6197b3f67c2b5cd3b6d9596a","session_id":"619bef06e9a252b640379807","condition":"full-information","relevant_dimensions":["wings","pattern"],"bee_group":{"antennae":"X","wings":"1","pattern":"D","legs":"X"},"action":"harvest","summary":"good-harvest","bonus":1.3400000000000007},{"rt":736,"stimulus":"\n                    <p><b>Action: <em>harvest</em></b></p>\n                    <p>This is the bee that you just saw.</p>\n                    <img src=\"bees-with-color/bee-B1SM.svg\" width=\"200\">\n                    <p><span class=\"greenText\"><b>Successful harvest!</b></span><br>Your pay has increased by $0.02. Your bonus pay is now $1.00.</p>\n            ","response":0,"trial_type":"html-button-response","trial_index":90,"time_elapsed":711368,"internal_node_id":"0.0-4.0-1.39","subject_id":"605563e772e44013a0772597","study_id":"6197b3f67c2b5cd3b6d9596a","session_id":"619bef06e9a252b640379807","condition":"full-information","relevant_dimensions":["wings","pattern"],"bee_group":{"antennae":"X","wings":"1","pattern":"D","legs":"X"},"bonus":1.3400000000000007},{"rt":921,"stimulus":"bees-with-color/bee-A2SF.svg","response":0,"trial_type":"image-button-response","trial_index":91,"time_elapsed":712290,"internal_node_id":"0.0-4.0-0.40","subject_id":"605563e772e44013a0772597","study_id":"6197b3f67c2b5cd3b6d9596a","session_id":"619bef06e9a252b640379807","condition":"full-information","relevant_dimensions":["wings","pattern"],"bee_group":{"antennae":"X","wings":"1","pattern":"D","legs":"X"},"action":"harvest","summary":"good-harvest","bonus":1.3400000000000007},{"rt":604,"stimulus":"\n                    <p><b>Action: <em>harvest</em></b></p>\n                    <p>This is the bee that you just saw.</p>\n                    <img src=\"bees-with-color/bee-A2SF.svg\" width=\"200\">\n                    <p><span class=\"greenText\"><b>Successful harvest!</b></span><br>Your pay has increased by $0.02. Your bonus pay is now $1.02.</p>\n            ","response":0,"trial_type":"html-button-response","trial_index":92,"time_elapsed":712897,"internal_node_id":"0.0-4.0-1.40","subject_id":"605563e772e44013a0772597","study_id":"6197b3f67c2b5cd3b6d9596a","session_id":"619bef06e9a252b640379807","condition":"full-information","relevant_dimensions":["wings","pattern"],"bee_group":{"antennae":"X","wings":"1","pattern":"D","legs":"X"},"bonus":1.3400000000000007},{"rt":1030,"stimulus":"bees-with-color/bee-B1DF.svg","response":1,"trial_type":"image-button-response","trial_index":93,"time_elapsed":713928,"internal_node_id":"0.0-4.0-0.41","subject_id":"605563e772e44013a0772597","study_id":"6197b3f67c2b5cd3b6d9596a","session_id":"619bef06e9a252b640379807","condition":"full-information","relevant_dimensions":["wings","pattern"],"bee_group":{"antennae":"X","wings":"1","pattern":"D","legs":"X"},"action":"avoid","summary":"good-avoid","bonus":1.3400000000000007},{"rt":651,"stimulus":"\n                    <p><b>Action: <em>avoid</em></b></p>\n                    <p>This is the bee that you just saw.</p>\n                    <img src=\"bees-with-color/bee-B1DF.svg\" width=\"200\">\n                    <p><span class=\"greenText\">Good choice!</span>  This bee would have stung you.<br>Your bonus pay is unchanged, and remains at $1.02.</p>\n            ","response":0,"trial_type":"html-button-response","trial_index":94,"time_elapsed":714581,"internal_node_id":"0.0-4.0-1.41","subject_id":"605563e772e44013a0772597","study_id":"6197b3f67c2b5cd3b6d9596a","session_id":"619bef06e9a252b640379807","condition":"full-information","relevant_dimensions":["wings","pattern"],"bee_group":{"antennae":"X","wings":"1","pattern":"D","legs":"X"},"bonus":1.3400000000000007},{"rt":1103,"stimulus":"bees-with-color/bee-A1SF.svg","response":0,"trial_type":"image-button-response","trial_index":95,"time_elapsed":715684,"internal_node_id":"0.0-4.0-0.42","subject_id":"605563e772e44013a0772597","study_id":"6197b3f67c2b5cd3b6d9596a","session_id":"619bef06e9a252b640379807","condition":"full-information","relevant_dimensions":["wings","pattern"],"bee_group":{"antennae":"X","wings":"1","pattern":"D","legs":"X"},"action":"harvest","summary":"good-harvest","bonus":1.3400000000000007},{"rt":1003,"stimulus":"\n                    <p><b>Action: <em>harvest</em></b></p>\n                    <p>This is the bee that you just saw.</p>\n                    <img src=\"bees-with-color/bee-A1SF.svg\" width=\"200\">\n                    <p><span class=\"greenText\"><b>Successful harvest!</b></span><br>Your pay has increased by $0.02. Your bonus pay is now $1.04.</p>\n            ","response":0,"trial_type":"html-button-response","trial_index":96,"time_elapsed":716689,"internal_node_id":"0.0-4.0-1.42","subject_id":"605563e772e44013a0772597","study_id":"6197b3f67c2b5cd3b6d9596a","session_id":"619bef06e9a252b640379807","condition":"full-information","relevant_dimensions":["wings","pattern"],"bee_group":{"antennae":"X","wings":"1","pattern":"D","legs":"X"},"bonus":1.3400000000000007},{"rt":1059,"stimulus":"bees-with-color/bee-B1SF.svg","response":0,"trial_type":"image-button-response","trial_index":97,"time_elapsed":717748,"internal_node_id":"0.0-4.0-0.43","subject_id":"605563e772e44013a0772597","study_id":"6197b3f67c2b5cd3b6d9596a","session_id":"619bef06e9a252b640379807","condition":"full-information","relevant_dimensions":["wings","pattern"],"bee_group":{"antennae":"X","wings":"1","pattern":"D","legs":"X"},"action":"harvest","summary":"good-harvest","bonus":1.3400000000000007},{"rt":684,"stimulus":"\n                    <p><b>Action: <em>harvest</em></b></p>\n                    <p>This is the bee that you just saw.</p>\n                    <img src=\"bees-with-color/bee-B1SF.svg\" width=\"200\">\n                    <p><span class=\"greenText\"><b>Successful harvest!</b></span><br>Your pay has increased by $0.02. Your bonus pay is now $1.06.</p>\n            ","response":0,"trial_type":"html-button-response","trial_index":98,"time_elapsed":718435,"internal_node_id":"0.0-4.0-1.43","subject_id":"605563e772e44013a0772597","study_id":"6197b3f67c2b5cd3b6d9596a","session_id":"619bef06e9a252b640379807","condition":"full-information","relevant_dimensions":["wings","pattern"],"bee_group":{"antennae":"X","wings":"1","pattern":"D","legs":"X"},"bonus":1.3400000000000007},{"rt":969,"stimulus":"bees-with-color/bee-A2SM.svg","response":0,"trial_type":"image-button-response","trial_index":99,"time_elapsed":719405,"internal_node_id":"0.0-4.0-0.44","subject_id":"605563e772e44013a0772597","study_id":"6197b3f67c2b5cd3b6d9596a","session_id":"619bef06e9a252b640379807","condition":"full-information","relevant_dimensions":["wings","pattern"],"bee_group":{"antennae":"X","wings":"1","pattern":"D","legs":"X"},"action":"harvest","summary":"good-harvest","bonus":1.3400000000000007},{"rt":734,"stimulus":"\n                    <p><b>Action: <em>harvest</em></b></p>\n                    <p>This is the bee that you just saw.</p>\n                    <img src=\"bees-with-color/bee-A2SM.svg\" width=\"200\">\n                    <p><span class=\"greenText\"><b>Successful harvest!</b></span><br>Your pay has increased by $0.02. Your bonus pay is now $1.08.</p>\n            ","response":0,"trial_type":"html-button-response","trial_index":100,"time_elapsed":720140,"internal_node_id":"0.0-4.0-1.44","subject_id":"605563e772e44013a0772597","study_id":"6197b3f67c2b5cd3b6d9596a","session_id":"619bef06e9a252b640379807","condition":"full-information","relevant_dimensions":["wings","pattern"],"bee_group":{"antennae":"X","wings":"1","pattern":"D","legs":"X"},"bonus":1.3400000000000007},{"rt":861,"stimulus":"bees-with-color/bee-A1SM.svg","response":0,"trial_type":"image-button-response","trial_index":101,"time_elapsed":721003,"internal_node_id":"0.0-4.0-0.45","subject_id":"605563e772e44013a0772597","study_id":"6197b3f67c2b5cd3b6d9596a","session_id":"619bef06e9a252b640379807","condition":"full-information","relevant_dimensions":["wings","pattern"],"bee_group":{"antennae":"X","wings":"1","pattern":"D","legs":"X"},"action":"harvest","summary":"good-harvest","bonus":1.3400000000000007},{"rt":709,"stimulus":"\n                    <p><b>Action: <em>harvest</em></b></p>\n                    <p>This is the bee that you just saw.</p>\n                    <img src=\"bees-with-color/bee-A1SM.svg\" width=\"200\">\n                    <p><span class=\"greenText\"><b>Successful harvest!</b></span><br>Your pay has increased by $0.02. Your bonus pay is now $1.10.</p>\n            ","response":0,"trial_type":"html-button-response","trial_index":102,"time_elapsed":721712,"internal_node_id":"0.0-4.0-1.45","subject_id":"605563e772e44013a0772597","study_id":"6197b3f67c2b5cd3b6d9596a","session_id":"619bef06e9a252b640379807","condition":"full-information","relevant_dimensions":["wings","pattern"],"bee_group":{"antennae":"X","wings":"1","pattern":"D","legs":"X"},"bonus":1.3400000000000007},{"rt":881,"stimulus":"bees-with-color/bee-B2SM.svg","response":0,"trial_type":"image-button-response","trial_index":103,"time_elapsed":722595,"internal_node_id":"0.0-4.0-0.46","subject_id":"605563e772e44013a0772597","study_id":"6197b3f67c2b5cd3b6d9596a","session_id":"619bef06e9a252b640379807","condition":"full-information","relevant_dimensions":["wings","pattern"],"bee_group":{"antennae":"X","wings":"1","pattern":"D","legs":"X"},"action":"harvest","summary":"good-harvest","bonus":1.3400000000000007},{"rt":832,"stimulus":"\n                    <p><b>Action: <em>harvest</em></b></p>\n                    <p>This is the bee that you just saw.</p>\n                    <img src=\"bees-with-color/bee-B2SM.svg\" width=\"200\">\n                    <p><span class=\"greenText\"><b>Successful harvest!</b></span><br>Your pay has increased by $0.02. Your bonus pay is now $1.12.</p>\n            ","response":0,"trial_type":"html-button-response","trial_index":104,"time_elapsed":723428,"internal_node_id":"0.0-4.0-1.46","subject_id":"605563e772e44013a0772597","study_id":"6197b3f67c2b5cd3b6d9596a","session_id":"619bef06e9a252b640379807","condition":"full-information","relevant_dimensions":["wings","pattern"],"bee_group":{"antennae":"X","wings":"1","pattern":"D","legs":"X"},"bonus":1.3400000000000007},{"rt":1651,"stimulus":"bees-with-color/bee-B1DM.svg","response":1,"trial_type":"image-button-response","trial_index":105,"time_elapsed":725080,"internal_node_id":"0.0-4.0-0.47","subject_id":"605563e772e44013a0772597","study_id":"6197b3f67c2b5cd3b6d9596a","session_id":"619bef06e9a252b640379807","condition":"full-information","relevant_dimensions":["wings","pattern"],"bee_group":{"antennae":"X","wings":"1","pattern":"D","legs":"X"},"action":"avoid","summary":"good-avoid","bonus":1.3400000000000007},{"rt":875,"stimulus":"\n                    <p><b>Action: <em>avoid</em></b></p>\n                    <p>This is the bee that you just saw.</p>\n                    <img src=\"bees-with-color/bee-B1DM.svg\" width=\"200\">\n                    <p><span class=\"greenText\">Good choice!</span>  This bee would have stung you.<br>Your bonus pay is unchanged, and remains at $1.12.</p>\n            ","response":0,"trial_type":"html-button-response","trial_index":106,"time_elapsed":725957,"internal_node_id":"0.0-4.0-1.47","subject_id":"605563e772e44013a0772597","study_id":"6197b3f67c2b5cd3b6d9596a","session_id":"619bef06e9a252b640379807","condition":"full-information","relevant_dimensions":["wings","pattern"],"bee_group":{"antennae":"X","wings":"1","pattern":"D","legs":"X"},"bonus":1.3400000000000007},{"rt":1292,"stimulus":"bees-with-color/bee-A2DM.svg","response":0,"trial_type":"image-button-response","trial_index":107,"time_elapsed":727248,"internal_node_id":"0.0-4.0-0.48","subject_id":"605563e772e44013a0772597","study_id":"6197b3f67c2b5cd3b6d9596a","session_id":"619bef06e9a252b640379807","condition":"full-information","relevant_dimensions":["wings","pattern"],"bee_group":{"antennae":"X","wings":"1","pattern":"D","legs":"X"},"action":"harvest","summary":"good-harvest","bonus":1.3400000000000007},{"rt":564,"stimulus":"\n                    <p><b>Action: <em>harvest</em></b></p>\n                    <p>This is the bee that you just saw.</p>\n                    <img src=\"bees-with-color/bee-A2DM.svg\" width=\"200\">\n                    <p><span class=\"greenText\"><b>Successful harvest!</b></span><br>Your pay has increased by $0.02. Your bonus pay is now $1.14.</p>\n            ","response":0,"trial_type":"html-button-response","trial_index":108,"time_elapsed":727814,"internal_node_id":"0.0-4.0-1.48","subject_id":"605563e772e44013a0772597","study_id":"6197b3f67c2b5cd3b6d9596a","session_id":"619bef06e9a252b640379807","condition":"full-information","relevant_dimensions":["wings","pattern"],"bee_group":{"antennae":"X","wings":"1","pattern":"D","legs":"X"},"bonus":1.3400000000000007},{"rt":945,"stimulus":"bees-with-color/bee-B2SM.svg","response":0,"trial_type":"image-button-response","trial_index":109,"time_elapsed":728760,"internal_node_id":"0.0-4.0-0.49","subject_id":"605563e772e44013a0772597","study_id":"6197b3f67c2b5cd3b6d9596a","session_id":"619bef06e9a252b640379807","condition":"full-information","relevant_dimensions":["wings","pattern"],"bee_group":{"antennae":"X","wings":"1","pattern":"D","legs":"X"},"action":"harvest","summary":"good-harvest","bonus":1.3400000000000007},{"rt":578,"stimulus":"\n                    <p><b>Action: <em>harvest</em></b></p>\n                    <p>This is the bee that you just saw.</p>\n                    <img src=\"bees-with-color/bee-B2SM.svg\" width=\"200\">\n                    <p><span class=\"greenText\"><b>Successful harvest!</b></span><br>Your pay has increased by $0.02. Your bonus pay is now $1.16.</p>\n            ","response":0,"trial_type":"html-button-response","trial_index":110,"time_elapsed":729340,"internal_node_id":"0.0-4.0-1.49","subject_id":"605563e772e44013a0772597","study_id":"6197b3f67c2b5cd3b6d9596a","session_id":"619bef06e9a252b640379807","condition":"full-information","relevant_dimensions":["wings","pattern"],"bee_group":{"antennae":"X","wings":"1","pattern":"D","legs":"X"},"bonus":1.3400000000000007},{"rt":1286,"stimulus":"bees-with-color/bee-A1SM.svg","response":0,"trial_type":"image-button-response","trial_index":111,"time_elapsed":730629,"internal_node_id":"0.0-4.0-0.50","subject_id":"605563e772e44013a0772597","study_id":"6197b3f67c2b5cd3b6d9596a","session_id":"619bef06e9a252b640379807","condition":"full-information","relevant_dimensions":["wings","pattern"],"bee_group":{"antennae":"X","wings":"1","pattern":"D","legs":"X"},"action":"harvest","summary":"good-harvest","bonus":1.3400000000000007},{"rt":677,"stimulus":"\n                    <p><b>Action: <em>harvest</em></b></p>\n                    <p>This is the bee that you just saw.</p>\n                    <img src=\"bees-with-color/bee-A1SM.svg\" width=\"200\">\n                    <p><span class=\"greenText\"><b>Successful harvest!</b></span><br>Your pay has increased by $0.02. Your bonus pay is now $1.18.</p>\n            ","response":0,"trial_type":"html-button-response","trial_index":112,"time_elapsed":731307,"internal_node_id":"0.0-4.0-1.50","subject_id":"605563e772e44013a0772597","study_id":"6197b3f67c2b5cd3b6d9596a","session_id":"619bef06e9a252b640379807","condition":"full-information","relevant_dimensions":["wings","pattern"],"bee_group":{"antennae":"X","wings":"1","pattern":"D","legs":"X"},"bonus":1.3400000000000007},{"rt":3111,"stimulus":"bees-with-color/bee-B1SM.svg","response":0,"trial_type":"image-button-response","trial_index":113,"time_elapsed":734419,"internal_node_id":"0.0-4.0-0.51","subject_id":"605563e772e44013a0772597","study_id":"6197b3f67c2b5cd3b6d9596a","session_id":"619bef06e9a252b640379807","condition":"full-information","relevant_dimensions":["wings","pattern"],"bee_group":{"antennae":"X","wings":"1","pattern":"D","legs":"X"},"action":"harvest","summary":"good-harvest","bonus":1.3400000000000007},{"rt":718,"stimulus":"\n                    <p><b>Action: <em>harvest</em></b></p>\n                    <p>This is the bee that you just saw.</p>\n                    <img src=\"bees-with-color/bee-B1SM.svg\" width=\"200\">\n                    <p><span class=\"greenText\"><b>Successful harvest!</b></span><br>Your pay has increased by $0.02. Your bonus pay is now $1.20.</p>\n            ","response":0,"trial_type":"html-button-response","trial_index":114,"time_elapsed":735139,"internal_node_id":"0.0-4.0-1.51","subject_id":"605563e772e44013a0772597","study_id":"6197b3f67c2b5cd3b6d9596a","session_id":"619bef06e9a252b640379807","condition":"full-information","relevant_dimensions":["wings","pattern"],"bee_group":{"antennae":"X","wings":"1","pattern":"D","legs":"X"},"bonus":1.3400000000000007},{"rt":1504,"stimulus":"bees-with-color/bee-A1DM.svg","response":1,"trial_type":"image-button-response","trial_index":115,"time_elapsed":736644,"internal_node_id":"0.0-4.0-0.52","subject_id":"605563e772e44013a0772597","study_id":"6197b3f67c2b5cd3b6d9596a","session_id":"619bef06e9a252b640379807","condition":"full-information","relevant_dimensions":["wings","pattern"],"bee_group":{"antennae":"X","wings":"1","pattern":"D","legs":"X"},"action":"avoid","summary":"good-avoid","bonus":1.3400000000000007},{"rt":878,"stimulus":"\n                    <p><b>Action: <em>avoid</em></b></p>\n                    <p>This is the bee that you just saw.</p>\n                    <img src=\"bees-with-color/bee-A1DM.svg\" width=\"200\">\n                    <p><span class=\"greenText\">Good choice!</span>  This bee would have stung you.<br>Your bonus pay is unchanged, and remains at $1.20.</p>\n            ","response":0,"trial_type":"html-button-response","trial_index":116,"time_elapsed":737525,"internal_node_id":"0.0-4.0-1.52","subject_id":"605563e772e44013a0772597","study_id":"6197b3f67c2b5cd3b6d9596a","session_id":"619bef06e9a252b640379807","condition":"full-information","relevant_dimensions":["wings","pattern"],"bee_group":{"antennae":"X","wings":"1","pattern":"D","legs":"X"},"bonus":1.3400000000000007},{"rt":1598,"stimulus":"bees-with-color/bee-B2DF.svg","response":0,"trial_type":"image-button-response","trial_index":117,"time_elapsed":739124,"internal_node_id":"0.0-4.0-0.53","subject_id":"605563e772e44013a0772597","study_id":"6197b3f67c2b5cd3b6d9596a","session_id":"619bef06e9a252b640379807","condition":"full-information","relevant_dimensions":["wings","pattern"],"bee_group":{"antennae":"X","wings":"1","pattern":"D","legs":"X"},"action":"harvest","summary":"good-harvest","bonus":1.3400000000000007},{"rt":783,"stimulus":"\n                    <p><b>Action: <em>harvest</em></b></p>\n                    <p>This is the bee that you just saw.</p>\n                    <img src=\"bees-with-color/bee-B2DF.svg\" width=\"200\">\n                    <p><span class=\"greenText\"><b>Successful harvest!</b></span><br>Your pay has increased by $0.02. Your bonus pay is now $1.22.</p>\n            ","response":0,"trial_type":"html-button-response","trial_index":118,"time_elapsed":739911,"internal_node_id":"0.0-4.0-1.53","subject_id":"605563e772e44013a0772597","study_id":"6197b3f67c2b5cd3b6d9596a","session_id":"619bef06e9a252b640379807","condition":"full-information","relevant_dimensions":["wings","pattern"],"bee_group":{"antennae":"X","wings":"1","pattern":"D","legs":"X"},"bonus":1.3400000000000007},{"rt":992,"stimulus":"bees-with-color/bee-A1DF.svg","response":1,"trial_type":"image-button-response","trial_index":119,"time_elapsed":740904,"internal_node_id":"0.0-4.0-0.54","subject_id":"605563e772e44013a0772597","study_id":"6197b3f67c2b5cd3b6d9596a","session_id":"619bef06e9a252b640379807","condition":"full-information","relevant_dimensions":["wings","pattern"],"bee_group":{"antennae":"X","wings":"1","pattern":"D","legs":"X"},"action":"avoid","summary":"good-avoid","bonus":1.3400000000000007},{"rt":753,"stimulus":"\n                    <p><b>Action: <em>avoid</em></b></p>\n                    <p>This is the bee that you just saw.</p>\n                    <img src=\"bees-with-color/bee-A1DF.svg\" width=\"200\">\n                    <p><span class=\"greenText\">Good choice!</span>  This bee would have stung you.<br>Your bonus pay is unchanged, and remains at $1.22.</p>\n            ","response":0,"trial_type":"html-button-response","trial_index":120,"time_elapsed":741659,"internal_node_id":"0.0-4.0-1.54","subject_id":"605563e772e44013a0772597","study_id":"6197b3f67c2b5cd3b6d9596a","session_id":"619bef06e9a252b640379807","condition":"full-information","relevant_dimensions":["wings","pattern"],"bee_group":{"antennae":"X","wings":"1","pattern":"D","legs":"X"},"bonus":1.3400000000000007},{"rt":864,"stimulus":"bees-with-color/bee-B1SF.svg","response":0,"trial_type":"image-button-response","trial_index":121,"time_elapsed":742524,"internal_node_id":"0.0-4.0-0.55","subject_id":"605563e772e44013a0772597","study_id":"6197b3f67c2b5cd3b6d9596a","session_id":"619bef06e9a252b640379807","condition":"full-information","relevant_dimensions":["wings","pattern"],"bee_group":{"antennae":"X","wings":"1","pattern":"D","legs":"X"},"action":"harvest","summary":"good-harvest","bonus":1.3400000000000007},{"rt":718,"stimulus":"\n                    <p><b>Action: <em>harvest</em></b></p>\n                    <p>This is the bee that you just saw.</p>\n                    <img src=\"bees-with-color/bee-B1SF.svg\" width=\"200\">\n                    <p><span class=\"greenText\"><b>Successful harvest!</b></span><br>Your pay has increased by $0.02. Your bonus pay is now $1.24.</p>\n            ","response":0,"trial_type":"html-button-response","trial_index":122,"time_elapsed":743244,"internal_node_id":"0.0-4.0-1.55","subject_id":"605563e772e44013a0772597","study_id":"6197b3f67c2b5cd3b6d9596a","session_id":"619bef06e9a252b640379807","condition":"full-information","relevant_dimensions":["wings","pattern"],"bee_group":{"antennae":"X","wings":"1","pattern":"D","legs":"X"},"bonus":1.3400000000000007},{"rt":1347,"stimulus":"bees-with-color/bee-B2DM.svg","response":0,"trial_type":"image-button-response","trial_index":123,"time_elapsed":744592,"internal_node_id":"0.0-4.0-0.56","subject_id":"605563e772e44013a0772597","study_id":"6197b3f67c2b5cd3b6d9596a","session_id":"619bef06e9a252b640379807","condition":"full-information","relevant_dimensions":["wings","pattern"],"bee_group":{"antennae":"X","wings":"1","pattern":"D","legs":"X"},"action":"harvest","summary":"good-harvest","bonus":1.3400000000000007},{"rt":619,"stimulus":"\n                    <p><b>Action: <em>harvest</em></b></p>\n                    <p>This is the bee that you just saw.</p>\n                    <img src=\"bees-with-color/bee-B2DM.svg\" width=\"200\">\n                    <p><span class=\"greenText\"><b>Successful harvest!</b></span><br>Your pay has increased by $0.02. Your bonus pay is now $1.26.</p>\n            ","response":0,"trial_type":"html-button-response","trial_index":124,"time_elapsed":745212,"internal_node_id":"0.0-4.0-1.56","subject_id":"605563e772e44013a0772597","study_id":"6197b3f67c2b5cd3b6d9596a","session_id":"619bef06e9a252b640379807","condition":"full-information","relevant_dimensions":["wings","pattern"],"bee_group":{"antennae":"X","wings":"1","pattern":"D","legs":"X"},"bonus":1.3400000000000007},{"rt":1019,"stimulus":"bees-with-color/bee-A2SM.svg","response":0,"trial_type":"image-button-response","trial_index":125,"time_elapsed":746232,"internal_node_id":"0.0-4.0-0.57","subject_id":"605563e772e44013a0772597","study_id":"6197b3f67c2b5cd3b6d9596a","session_id":"619bef06e9a252b640379807","condition":"full-information","relevant_dimensions":["wings","pattern"],"bee_group":{"antennae":"X","wings":"1","pattern":"D","legs":"X"},"action":"harvest","summary":"good-harvest","bonus":1.3400000000000007},{"rt":627,"stimulus":"\n                    <p><b>Action: <em>harvest</em></b></p>\n                    <p>This is the bee that you just saw.</p>\n                    <img src=\"bees-with-color/bee-A2SM.svg\" width=\"200\">\n                    <p><span class=\"greenText\"><b>Successful harvest!</b></span><br>Your pay has increased by $0.02. Your bonus pay is now $1.28.</p>\n            ","response":0,"trial_type":"html-button-response","trial_index":126,"time_elapsed":746860,"internal_node_id":"0.0-4.0-1.57","subject_id":"605563e772e44013a0772597","study_id":"6197b3f67c2b5cd3b6d9596a","session_id":"619bef06e9a252b640379807","condition":"full-information","relevant_dimensions":["wings","pattern"],"bee_group":{"antennae":"X","wings":"1","pattern":"D","legs":"X"},"bonus":1.3400000000000007},{"rt":1038,"stimulus":"bees-with-color/bee-B1DM.svg","response":1,"trial_type":"image-button-response","trial_index":127,"time_elapsed":747900,"internal_node_id":"0.0-4.0-0.58","subject_id":"605563e772e44013a0772597","study_id":"6197b3f67c2b5cd3b6d9596a","session_id":"619bef06e9a252b640379807","condition":"full-information","relevant_dimensions":["wings","pattern"],"bee_group":{"antennae":"X","wings":"1","pattern":"D","legs":"X"},"action":"avoid","summary":"good-avoid","bonus":1.3400000000000007},{"rt":625,"stimulus":"\n                    <p><b>Action: <em>avoid</em></b></p>\n                    <p>This is the bee that you just saw.</p>\n                    <img src=\"bees-with-color/bee-B1DM.svg\" width=\"200\">\n                    <p><span class=\"greenText\">Good choice!</span>  This bee would have stung you.<br>Your bonus pay is unchanged, and remains at $1.28.</p>\n            ","response":0,"trial_type":"html-button-response","trial_index":128,"time_elapsed":748526,"internal_node_id":"0.0-4.0-1.58","subject_id":"605563e772e44013a0772597","study_id":"6197b3f67c2b5cd3b6d9596a","session_id":"619bef06e9a252b640379807","condition":"full-information","relevant_dimensions":["wings","pattern"],"bee_group":{"antennae":"X","wings":"1","pattern":"D","legs":"X"},"bonus":1.3400000000000007},{"rt":808,"stimulus":"bees-with-color/bee-B2SF.svg","response":0,"trial_type":"image-button-response","trial_index":129,"time_elapsed":749334,"internal_node_id":"0.0-4.0-0.59","subject_id":"605563e772e44013a0772597","study_id":"6197b3f67c2b5cd3b6d9596a","session_id":"619bef06e9a252b640379807","condition":"full-information","relevant_dimensions":["wings","pattern"],"bee_group":{"antennae":"X","wings":"1","pattern":"D","legs":"X"},"action":"harvest","summary":"good-harvest","bonus":1.3400000000000007},{"rt":687,"stimulus":"\n                    <p><b>Action: <em>harvest</em></b></p>\n                    <p>This is the bee that you just saw.</p>\n                    <img src=\"bees-with-color/bee-B2SF.svg\" width=\"200\">\n                    <p><span class=\"greenText\"><b>Successful harvest!</b></span><br>Your pay has increased by $0.02. Your bonus pay is now $1.30.</p>\n            ","response":0,"trial_type":"html-button-response","trial_index":130,"time_elapsed":750023,"internal_node_id":"0.0-4.0-1.59","subject_id":"605563e772e44013a0772597","study_id":"6197b3f67c2b5cd3b6d9596a","session_id":"619bef06e9a252b640379807","condition":"full-information","relevant_dimensions":["wings","pattern"],"bee_group":{"antennae":"X","wings":"1","pattern":"D","legs":"X"},"bonus":1.3400000000000007},{"rt":1555,"stimulus":"bees-with-color/bee-A2DF.svg","response":0,"trial_type":"image-button-response","trial_index":131,"time_elapsed":751579,"internal_node_id":"0.0-4.0-0.60","subject_id":"605563e772e44013a0772597","study_id":"6197b3f67c2b5cd3b6d9596a","session_id":"619bef06e9a252b640379807","condition":"full-information","relevant_dimensions":["wings","pattern"],"bee_group":{"antennae":"X","wings":"1","pattern":"D","legs":"X"},"action":"harvest","summary":"good-harvest","bonus":1.3400000000000007},{"rt":577,"stimulus":"\n                    <p><b>Action: <em>harvest</em></b></p>\n                    <p>This is the bee that you just saw.</p>\n                    <img src=\"bees-with-color/bee-A2DF.svg\" width=\"200\">\n                    <p><span class=\"greenText\"><b>Successful harvest!</b></span><br>Your pay has increased by $0.02. Your bonus pay is now $1.32.</p>\n            ","response":0,"trial_type":"html-button-response","trial_index":132,"time_elapsed":752157,"internal_node_id":"0.0-4.0-1.60","subject_id":"605563e772e44013a0772597","study_id":"6197b3f67c2b5cd3b6d9596a","session_id":"619bef06e9a252b640379807","condition":"full-information","relevant_dimensions":["wings","pattern"],"bee_group":{"antennae":"X","wings":"1","pattern":"D","legs":"X"},"bonus":1.3400000000000007},{"rt":858,"stimulus":"bees-with-color/bee-B1DF.svg","response":1,"trial_type":"image-button-response","trial_index":133,"time_elapsed":753015,"internal_node_id":"0.0-4.0-0.61","subject_id":"605563e772e44013a0772597","study_id":"6197b3f67c2b5cd3b6d9596a","session_id":"619bef06e9a252b640379807","condition":"full-information","relevant_dimensions":["wings","pattern"],"bee_group":{"antennae":"X","wings":"1","pattern":"D","legs":"X"},"action":"avoid","summary":"good-avoid","bonus":1.3400000000000007},{"rt":677,"stimulus":"\n                    <p><b>Action: <em>avoid</em></b></p>\n                    <p>This is the bee that you just saw.</p>\n                    <img src=\"bees-with-color/bee-B1DF.svg\" width=\"200\">\n                    <p><span class=\"greenText\">Good choice!</span>  This bee would have stung you.<br>Your bonus pay is unchanged, and remains at $1.32.</p>\n            ","response":0,"trial_type":"html-button-response","trial_index":134,"time_elapsed":753695,"internal_node_id":"0.0-4.0-1.61","subject_id":"605563e772e44013a0772597","study_id":"6197b3f67c2b5cd3b6d9596a","session_id":"619bef06e9a252b640379807","condition":"full-information","relevant_dimensions":["wings","pattern"],"bee_group":{"antennae":"X","wings":"1","pattern":"D","legs":"X"},"bonus":1.3400000000000007},{"rt":912,"stimulus":"bees-with-color/bee-A2SF.svg","response":0,"trial_type":"image-button-response","trial_index":135,"time_elapsed":754609,"internal_node_id":"0.0-4.0-0.62","subject_id":"605563e772e44013a0772597","study_id":"6197b3f67c2b5cd3b6d9596a","session_id":"619bef06e9a252b640379807","condition":"full-information","relevant_dimensions":["wings","pattern"],"bee_group":{"antennae":"X","wings":"1","pattern":"D","legs":"X"},"action":"harvest","summary":"good-harvest","bonus":1.3400000000000007},{"rt":808,"stimulus":"\n                    <p><b>Action: <em>harvest</em></b></p>\n                    <p>This is the bee that you just saw.</p>\n                    <img src=\"bees-with-color/bee-A2SF.svg\" width=\"200\">\n                    <p><span class=\"greenText\"><b>Successful harvest!</b></span><br>Your pay has increased by $0.02. Your bonus pay is now $1.34.</p>\n            ","response":0,"trial_type":"html-button-response","trial_index":136,"time_elapsed":755417,"internal_node_id":"0.0-4.0-1.62","subject_id":"605563e772e44013a0772597","study_id":"6197b3f67c2b5cd3b6d9596a","session_id":"619bef06e9a252b640379807","condition":"full-information","relevant_dimensions":["wings","pattern"],"bee_group":{"antennae":"X","wings":"1","pattern":"D","legs":"X"},"bonus":1.3400000000000007},{"rt":3855,"stimulus":"bees-with-color/bee-A1SF.svg","response":0,"trial_type":"image-button-response","trial_index":137,"time_elapsed":759274,"internal_node_id":"0.0-4.0-0.63","subject_id":"605563e772e44013a0772597","study_id":"6197b3f67c2b5cd3b6d9596a","session_id":"619bef06e9a252b640379807","condition":"full-information","relevant_dimensions":["wings","pattern"],"bee_group":{"antennae":"X","wings":"1","pattern":"D","legs":"X"},"action":"harvest","summary":"good-harvest","bonus":1.3400000000000007},{"rt":570,"stimulus":"\n                    <p><b>Action: <em>harvest</em></b></p>\n                    <p>This is the bee that you just saw.</p>\n                    <img src=\"bees-with-color/bee-A1SF.svg\" width=\"200\">\n                    <p><span class=\"greenText\"><b>Successful harvest!</b></span><br>Your pay has increased by $0.02. Your bonus pay is now $1.36.</p>\n            ","response":0,"trial_type":"html-button-response","trial_index":138,"time_elapsed":759846,"internal_node_id":"0.0-4.0-1.63","subject_id":"605563e772e44013a0772597","study_id":"6197b3f67c2b5cd3b6d9596a","session_id":"619bef06e9a252b640379807","condition":"full-information","relevant_dimensions":["wings","pattern"],"bee_group":{"antennae":"X","wings":"1","pattern":"D","legs":"X"},"bonus":1.3400000000000007},{"rt":12688,"stimulus":"You have completed the first part of this experiment.<br><br>You will now begin a shorter second part, in which you will receive no feedback.<br>The same rules regarding bonus pay apply.<br><br>Press any key to begin.","response":" ","trial_type":"html-keyboard-response","trial_index":139,"time_elapsed":772536,"internal_node_id":"0.0-5.0","subject_id":"605563e772e44013a0772597","study_id":"6197b3f67c2b5cd3b6d9596a","session_id":"619bef06e9a252b640379807","condition":"full-information","relevant_dimensions":["wings","pattern"],"bee_group":{"antennae":"X","wings":"1","pattern":"D","legs":"X"},"bonus":1.3400000000000007},{"rt":11230,"stimulus":"bees-with-color/bee-A2DM.svg","response":1,"trial_type":"image-button-response","trial_index":140,"time_elapsed":783767,"internal_node_id":"0.0-6.0-0.0","subject_id":"605563e772e44013a0772597","study_id":"6197b3f67c2b5cd3b6d9596a","session_id":"619bef06e9a252b640379807","condition":"full-information","relevant_dimensions":["wings","pattern"],"bee_group":{"antennae":"X","wings":"1","pattern":"D","legs":"X"},"bonus":1.3400000000000007},{"rt":33750,"stimulus":"bees-with-color/bee-B2DF.svg","response":0,"trial_type":"image-button-response","trial_index":141,"time_elapsed":817518,"internal_node_id":"0.0-6.0-0.1","subject_id":"605563e772e44013a0772597","study_id":"6197b3f67c2b5cd3b6d9596a","session_id":"619bef06e9a252b640379807","condition":"full-information","relevant_dimensions":["wings","pattern"],"bee_group":{"antennae":"X","wings":"1","pattern":"D","legs":"X"},"bonus":1.3400000000000007},{"rt":1141,"stimulus":"bees-with-color/bee-A1SM.svg","response":1,"trial_type":"image-button-response","trial_index":142,"time_elapsed":818661,"internal_node_id":"0.0-6.0-0.2","subject_id":"605563e772e44013a0772597","study_id":"6197b3f67c2b5cd3b6d9596a","session_id":"619bef06e9a252b640379807","condition":"full-information","relevant_dimensions":["wings","pattern"],"bee_group":{"antennae":"X","wings":"1","pattern":"D","legs":"X"},"bonus":1.3400000000000007},{"rt":533,"stimulus":"bees-with-color/bee-B1DF.svg","response":0,"trial_type":"image-button-response","trial_index":143,"time_elapsed":819195,"internal_node_id":"0.0-6.0-0.3","subject_id":"605563e772e44013a0772597","study_id":"6197b3f67c2b5cd3b6d9596a","session_id":"619bef06e9a252b640379807","condition":"full-information","relevant_dimensions":["wings","pattern"],"bee_group":{"antennae":"X","wings":"1","pattern":"D","legs":"X"},"bonus":1.3400000000000007},{"rt":518,"stimulus":"bees-with-color/bee-B2SM.svg","response":0,"trial_type":"image-button-response","trial_index":144,"time_elapsed":819714,"internal_node_id":"0.0-6.0-0.4","subject_id":"605563e772e44013a0772597","study_id":"6197b3f67c2b5cd3b6d9596a","session_id":"619bef06e9a252b640379807","condition":"full-information","relevant_dimensions":["wings","pattern"],"bee_group":{"antennae":"X","wings":"1","pattern":"D","legs":"X"},"bonus":1.3400000000000007},{"rt":748,"stimulus":"bees-with-color/bee-A1DF.svg","response":1,"trial_type":"image-button-response","trial_index":145,"time_elapsed":820464,"internal_node_id":"0.0-6.0-0.5","subject_id":"605563e772e44013a0772597","study_id":"6197b3f67c2b5cd3b6d9596a","session_id":"619bef06e9a252b640379807","condition":"full-information","relevant_dimensions":["wings","pattern"],"bee_group":{"antennae":"X","wings":"1","pattern":"D","legs":"X"},"bonus":1.3400000000000007},{"rt":1554,"stimulus":"bees-with-color/bee-B1SM.svg","response":1,"trial_type":"image-button-response","trial_index":146,"time_elapsed":822020,"internal_node_id":"0.0-6.0-0.6","subject_id":"605563e772e44013a0772597","study_id":"6197b3f67c2b5cd3b6d9596a","session_id":"619bef06e9a252b640379807","condition":"full-information","relevant_dimensions":["wings","pattern"],"bee_group":{"antennae":"X","wings":"1","pattern":"D","legs":"X"},"bonus":1.3400000000000007},{"rt":342,"stimulus":"bees-with-color/bee-A2SM.svg","response":0,"trial_type":"image-button-response","trial_index":147,"time_elapsed":822365,"internal_node_id":"0.0-6.0-0.7","subject_id":"605563e772e44013a0772597","study_id":"6197b3f67c2b5cd3b6d9596a","session_id":"619bef06e9a252b640379807","condition":"full-information","relevant_dimensions":["wings","pattern"],"bee_group":{"antennae":"X","wings":"1","pattern":"D","legs":"X"},"bonus":1.3400000000000007},{"rt":591,"stimulus":"bees-with-color/bee-A2DF.svg","response":0,"trial_type":"image-button-response","trial_index":148,"time_elapsed":822957,"internal_node_id":"0.0-6.0-0.8","subject_id":"605563e772e44013a0772597","study_id":"6197b3f67c2b5cd3b6d9596a","session_id":"619bef06e9a252b640379807","condition":"full-information","relevant_dimensions":["wings","pattern"],"bee_group":{"antennae":"X","wings":"1","pattern":"D","legs":"X"},"bonus":1.3400000000000007},{"rt":442,"stimulus":"bees-with-color/bee-A1SF.svg","response":1,"trial_type":"image-button-response","trial_index":149,"time_elapsed":823401,"internal_node_id":"0.0-6.0-0.9","subject_id":"605563e772e44013a0772597","study_id":"6197b3f67c2b5cd3b6d9596a","session_id":"619bef06e9a252b640379807","condition":"full-information","relevant_dimensions":["wings","pattern"],"bee_group":{"antennae":"X","wings":"1","pattern":"D","legs":"X"},"bonus":1.3400000000000007},{"rt":716,"stimulus":"bees-with-color/bee-A2SF.svg","response":0,"trial_type":"image-button-response","trial_index":150,"time_elapsed":824118,"internal_node_id":"0.0-6.0-0.10","subject_id":"605563e772e44013a0772597","study_id":"6197b3f67c2b5cd3b6d9596a","session_id":"619bef06e9a252b640379807","condition":"full-information","relevant_dimensions":["wings","pattern"],"bee_group":{"antennae":"X","wings":"1","pattern":"D","legs":"X"},"bonus":1.3400000000000007},{"rt":572,"stimulus":"bees-with-color/bee-B2SF.svg","response":0,"trial_type":"image-button-response","trial_index":151,"time_elapsed":824692,"internal_node_id":"0.0-6.0-0.11","subject_id":"605563e772e44013a0772597","study_id":"6197b3f67c2b5cd3b6d9596a","session_id":"619bef06e9a252b640379807","condition":"full-information","relevant_dimensions":["wings","pattern"],"bee_group":{"antennae":"X","wings":"1","pattern":"D","legs":"X"},"bonus":1.3400000000000007},{"rt":380,"stimulus":"bees-with-color/bee-B2DM.svg","response":1,"trial_type":"image-button-response","trial_index":152,"time_elapsed":825074,"internal_node_id":"0.0-6.0-0.12","subject_id":"605563e772e44013a0772597","study_id":"6197b3f67c2b5cd3b6d9596a","session_id":"619bef06e9a252b640379807","condition":"full-information","relevant_dimensions":["wings","pattern"],"bee_group":{"antennae":"X","wings":"1","pattern":"D","legs":"X"},"bonus":1.3400000000000007},{"rt":1424,"stimulus":"bees-with-color/bee-B1DM.svg","response":1,"trial_type":"image-button-response","trial_index":153,"time_elapsed":826500,"internal_node_id":"0.0-6.0-0.13","subject_id":"605563e772e44013a0772597","study_id":"6197b3f67c2b5cd3b6d9596a","session_id":"619bef06e9a252b640379807","condition":"full-information","relevant_dimensions":["wings","pattern"],"bee_group":{"antennae":"X","wings":"1","pattern":"D","legs":"X"},"bonus":1.3400000000000007},{"rt":299,"stimulus":"bees-with-color/bee-A1DM.svg","response":0,"trial_type":"image-button-response","trial_index":154,"time_elapsed":826800,"internal_node_id":"0.0-6.0-0.14","subject_id":"605563e772e44013a0772597","study_id":"6197b3f67c2b5cd3b6d9596a","session_id":"619bef06e9a252b640379807","condition":"full-information","relevant_dimensions":["wings","pattern"],"bee_group":{"antennae":"X","wings":"1","pattern":"D","legs":"X"},"bonus":1.3400000000000007},{"rt":613,"stimulus":"bees-with-color/bee-B1SF.svg","response":0,"trial_type":"image-button-response","trial_index":155,"time_elapsed":827414,"internal_node_id":"0.0-6.0-0.15","subject_id":"605563e772e44013a0772597","study_id":"6197b3f67c2b5cd3b6d9596a","session_id":"619bef06e9a252b640379807","condition":"full-information","relevant_dimensions":["wings","pattern"],"bee_group":{"antennae":"X","wings":"1","pattern":"D","legs":"X"},"bonus":1.3400000000000007},{"rt":1261,"stimulus":"bees-with-color/bee-A2DF.svg","response":1,"trial_type":"image-button-response","trial_index":156,"time_elapsed":828677,"internal_node_id":"0.0-6.0-0.16","subject_id":"605563e772e44013a0772597","study_id":"6197b3f67c2b5cd3b6d9596a","session_id":"619bef06e9a252b640379807","condition":"full-information","relevant_dimensions":["wings","pattern"],"bee_group":{"antennae":"X","wings":"1","pattern":"D","legs":"X"},"bonus":1.3400000000000007},{"rt":598,"stimulus":"bees-with-color/bee-B1SM.svg","response":0,"trial_type":"image-button-response","trial_index":157,"time_elapsed":829277,"internal_node_id":"0.0-6.0-0.17","subject_id":"605563e772e44013a0772597","study_id":"6197b3f67c2b5cd3b6d9596a","session_id":"619bef06e9a252b640379807","condition":"full-information","relevant_dimensions":["wings","pattern"],"bee_group":{"antennae":"X","wings":"1","pattern":"D","legs":"X"},"bonus":1.3400000000000007},{"rt":964,"stimulus":"bees-with-color/bee-A2SM.svg","response":0,"trial_type":"image-button-response","trial_index":158,"time_elapsed":830242,"internal_node_id":"0.0-6.0-0.18","subject_id":"605563e772e44013a0772597","study_id":"6197b3f67c2b5cd3b6d9596a","session_id":"619bef06e9a252b640379807","condition":"full-information","relevant_dimensions":["wings","pattern"],"bee_group":{"antennae":"X","wings":"1","pattern":"D","legs":"X"},"bonus":1.3400000000000007},{"rt":460,"stimulus":"bees-with-color/bee-B2DF.svg","response":1,"trial_type":"image-button-response","trial_index":159,"time_elapsed":830705,"internal_node_id":"0.0-6.0-0.19","subject_id":"605563e772e44013a0772597","study_id":"6197b3f67c2b5cd3b6d9596a","session_id":"619bef06e9a252b640379807","condition":"full-information","relevant_dimensions":["wings","pattern"],"bee_group":{"antennae":"X","wings