[{"success":true,"trial_type":"fullscreen","trial_index":0,"time_elapsed":7086,"internal_node_id":"0.0-0.0","subject_id":"60ef4642202c8520a37e19b5","study_id":"60edd13110225f80f9f3709b","session_id":"6196c7085e0e464228a06159","condition":"contingent","relevant_dimensions":["antennae","wings"],"bee_group":{"antennae":"B","wings":"2","pattern":"X","legs":"X"},"bonus":0.06000000000000093},{"success":true,"timeout":false,"failed_images":[],"failed_audio":[],"failed_video":[],"trial_type":"preload","trial_index":1,"time_elapsed":10545,"internal_node_id":"0.0-1.0","subject_id":"60ef4642202c8520a37e19b5","study_id":"60edd13110225f80f9f3709b","session_id":"6196c7085e0e464228a06159","condition":"contingent","relevant_dimensions":["antennae","wings"],"bee_group":{"antennae":"B","wings":"2","pattern":"X","legs":"X"},"bonus":0.06000000000000093},{"rt":3340.2000000029802,"stimulus":"Welcome! Press any key to begin.","response":" ","trial_type":"html-keyboard-response","trial_index":2,"time_elapsed":13886,"internal_node_id":"0.0-2.0","subject_id":"60ef4642202c8520a37e19b5","study_id":"60edd13110225f80f9f3709b","session_id":"6196c7085e0e464228a06159","condition":"contingent","relevant_dimensions":["antennae","wings"],"bee_group":{"antennae":"B","wings":"2","pattern":"X","legs":"X"},"bonus":0.06000000000000093},{"view_history":[{"page_index":0,"viewing_time":4206.20000000298},{"page_index":1,"viewing_time":12570.5},{"page_index":2,"viewing_time":10238.79999999702},{"page_index":3,"viewing_time":17390.70000000298},{"page_index":4,"viewing_time":7594.399999991059},{"page_index":5,"viewing_time":11758.90000000596},{"page_index":6,"viewing_time":15296.70000000298},{"page_index":7,"viewing_time":5456.899999991059},{"page_index":8,"viewing_time":6761.800000011921},{"page_index":9,"viewing_time":5022.699999988079},{"page_index":10,"viewing_time":2822.4000000059605},{"page_index":11,"viewing_time":6897.9000000059605},{"page_index":12,"viewing_time":9465.09999999404},{"page_index":13,"viewing_time":1311.5999999940395},{"page_index":14,"viewing_time":3132.300000011921}],"rt":119927.09999999404,"trial_type":"instructions","trial_index":3,"time_elapsed":133814,"internal_node_id":"0.0-3.0-0.0","subject_id":"60ef4642202c8520a37e19b5","study_id":"60edd13110225f80f9f3709b","session_id":"6196c7085e0e464228a06159","condition":"contingent","relevant_dimensions":["antennae","wings"],"bee_group":{"antennae":"B","wings":"2","pattern":"X","legs":"X"},"bonus":0.06000000000000093},{"rt":16897.29999999702,"response":{"Q0":["Two or six legs","Stripes or spots on body","Stinger or no stinger","Single or double wings","Antennae or no antennae"]},"question_order":[0],"trial_type":"survey-multi-select","trial_index":4,"time_elapsed":150714,"internal_node_id":"0.0-3.0-1.0","subject_id":"60ef4642202c8520a37e19b5","study_id":"60edd13110225f80f9f3709b","session_id":"6196c7085e0e464228a06159","condition":"contingent","relevant_dimensions":["antennae","wings"],"bee_group":{"antennae":"B","wings":"2","pattern":"X","legs":"X"},"correct":false,"bonus":0.06000000000000093},{"rt":21930.5,"response":{"Q1":"No.","Q2":"Based on the four features of the bee.","Q3":"You do not learn if it was friendly or dangerous, and do not alter your bonus."},"question_order":[0,1,2],"trial_type":"survey-multi-choice","trial_index":5,"time_elapsed":172647,"internal_node_id":"0.0-3.0-2.0","subject_id":"60ef4642202c8520a37e19b5","study_id":"60edd13110225f80f9f3709b","session_id":"6196c7085e0e464228a06159","condition":"contingent","relevant_dimensions":["antennae","wings"],"bee_group":{"antennae":"B","wings":"2","pattern":"X","legs":"X"},"correct":true,"bonus":0.06000000000000093},{"rt":4593,"stimulus":"<p>You did not answer all comprehension questions correctly.<br>Press <b>continue</b> to review the instructions again.</p>","response":0,"trial_type":"html-button-response","trial_index":6,"time_elapsed":177243,"internal_node_id":"0.0-3.0-3.0","subject_id":"60ef4642202c8520a37e19b5","study_id":"60edd13110225f80f9f3709b","session_id":"6196c7085e0e464228a06159","condition":"contingent","relevant_dimensions":["antennae","wings"],"bee_group":{"antennae":"B","wings":"2","pattern":"X","legs":"X"},"bonus":0.06000000000000093},{"view_history":[{"page_index":0,"viewing_time":4023.5},{"page_index":1,"viewing_time":2378.3999999910593},{"page_index":2,"viewing_time":2013.7999999970198},{"page_index":3,"viewing_time":1588.300000011921},{"page_index":4,"viewing_time":3686.2999999970198},{"page_index":3,"viewing_time":3970},{"page_index":4,"viewing_time":1610.3999999910593},{"page_index":5,"viewing_time":1852.300000011921},{"page_index":6,"viewing_time":9266.29999999702},{"page_index":7,"viewing_time":8838.20000000298},{"page_index":8,"viewing_time":1462.5},{"page_index":9,"viewing_time":1705.8999999910593},{"page_index":10,"viewing_time":1367.7999999970198},{"page_index":11,"viewing_time":6800.4000000059605},{"page_index":12,"viewing_time":2042.2000000029802},{"page_index":13,"viewing_time":1142.2999999970198},{"page_index":14,"viewing_time":1345.7000000029802}],"rt":55094.39999999106,"trial_type":"instructions","trial_index":7,"time_elapsed":232338,"internal_node_id":"0.0-3.0-4.0-0.0","subject_id":"60ef4642202c8520a37e19b5","study_id":"60edd13110225f80f9f3709b","session_id":"6196c7085e0e464228a06159","condition":"contingent","relevant_dimensions":["antennae","wings"],"bee_group":{"antennae":"B","wings":"2","pattern":"X","legs":"X"},"bonus":0.06000000000000093},{"rt":13707.79999999702,"response":{"Q0":["Two or six legs","Stripes or spots on body","Single or double wings","Antennae or no antennae"]},"question_order":[0],"trial_type":"survey-multi-select","trial_index":8,"time_elapsed":246047,"internal_node_id":"0.0-3.0-4.0-1.0","subject_id":"60ef4642202c8520a37e19b5","study_id":"60edd13110225f80f9f3709b","session_id":"6196c7085e0e464228a06159","condition":"contingent","relevant_dimensions":["antennae","wings"],"bee_group":{"antennae":"B","wings":"2","pattern":"X","legs":"X"},"correct":true,"bonus":0.06000000000000093},{"rt":9176.20000000298,"response":{"Q1":"No.","Q2":"Based on the four features of the bee.","Q3":"You do not learn if it was friendly or dangerous, and do not alter your bonus."},"question_order":[0,1,2],"trial_type":"survey-multi-choice","trial_index":9,"time_elapsed":255226,"internal_node_id":"0.0-3.0-4.0-2.0","subject_id":"60ef4642202c8520a37e19b5","study_id":"60edd13110225f80f9f3709b","session_id":"6196c7085e0e464228a06159","condition":"contingent","relevant_dimensions":["antennae","wings"],"bee_group":{"antennae":"B","wings":"2","pattern":"X","legs":"X"},"correct":true,"bonus":0.06000000000000093},{"rt":3825.5,"stimulus":"<p>Congrats, you got everything right<br>When you're ready, click the button below to continue to the experiment.</p>","response":0,"trial_type":"html-button-response","trial_index":10,"time_elapsed":259054,"internal_node_id":"0.0-3.0-4.0-3.0","subject_id":"60ef4642202c8520a37e19b5","study_id":"60edd13110225f80f9f3709b","session_id":"6196c7085e0e464228a06159","condition":"contingent","relevant_dimensions":["antennae","wings"],"bee_group":{"antennae":"B","wings":"2","pattern":"X","legs":"X"},"bonus":0.06000000000000093},{"rt":10585.39999999106,"stimulus":"bees-with-color/bee-A1SM.svg","response":0,"trial_type":"image-button-response","trial_index":11,"time_elapsed":269641,"internal_node_id":"0.0-4.0-0.0","subject_id":"60ef4642202c8520a37e19b5","study_id":"60edd13110225f80f9f3709b","session_id":"6196c7085e0e464228a06159","condition":"contingent","relevant_dimensions":["antennae","wings"],"bee_group":{"antennae":"B","wings":"2","pattern":"X","legs":"X"},"action":"harvest","summary":"good-harvest","bonus":0.06000000000000093},{"rt":10472.70000000298,"stimulus":"\n                    <p><b>Action: <em>harvest</em></b></p>\n                    <p>This is the bee that you just saw.</p>\n                    <img src=\"bees-with-color/bee-A1SM.svg\" width=\"200\">\n                    <p><span class=\"greenText\"><b>Successful harvest!</b></span><br>Your pay has increased by $0.02. Your bonus pay is now $0.56.</p>\n            ","response":0,"trial_type":"html-button-response","trial_index":12,"time_elapsed":280115,"internal_node_id":"0.0-4.0-1.0","subject_id":"60ef4642202c8520a37e19b5","study_id":"60edd13110225f80f9f3709b","session_id":"6196c7085e0e464228a06159","condition":"contingent","relevant_dimensions":["antennae","wings"],"bee_group":{"antennae":"B","wings":"2","pattern":"X","legs":"X"},"bonus":0.06000000000000093},{"rt":3352.8999999910593,"stimulus":"bees-with-color/bee-A2SM.svg","response":0,"trial_type":"image-button-response","trial_index":13,"time_elapsed":283470,"internal_node_id":"0.0-4.0-0.1","subject_id":"60ef4642202c8520a37e19b5","study_id":"60edd13110225f80f9f3709b","session_id":"6196c7085e0e464228a06159","condition":"contingent","relevant_dimensions":["antennae","wings"],"bee_group":{"antennae":"B","wings":"2","pattern":"X","legs":"X"},"action":"harvest","summary":"good-harvest","bonus":0.06000000000000093},{"rt":9725.5,"stimulus":"\n                    <p><b>Action: <em>harvest</em></b></p>\n                    <p>This is the bee that you just saw.</p>\n                    <img src=\"bees-with-color/bee-A2SM.svg\" width=\"200\">\n                    <p><span class=\"greenText\"><b>Successful harvest!</b></span><br>Your pay has increased by $0.02. Your bonus pay is now $0.58.</p>\n            ","response":0,"trial_type":"html-button-response","trial_index":14,"time_elapsed":293196,"internal_node_id":"0.0-4.0-1.1","subject_id":"60ef4642202c8520a37e19b5","study_id":"60edd13110225f80f9f3709b","session_id":"6196c7085e0e464228a06159","condition":"contingent","relevant_dimensions":["antennae","wings"],"bee_group":{"antennae":"B","wings":"2","pattern":"X","legs":"X"},"bonus":0.06000000000000093},{"rt":1457.1000000089407,"stimulus":"bees-with-color/bee-B1SM.svg","response":0,"trial_type":"image-button-response","trial_index":15,"time_elapsed":294655,"internal_node_id":"0.0-4.0-0.2","subject_id":"60ef4642202c8520a37e19b5","study_id":"60edd13110225f80f9f3709b","session_id":"6196c7085e0e464228a06159","condition":"contingent","relevant_dimensions":["antennae","wings"],"bee_group":{"antennae":"B","wings":"2","pattern":"X","legs":"X"},"action":"harvest","summary":"good-harvest","bonus":0.06000000000000093},{"rt":3729.0999999940395,"stimulus":"\n                    <p><b>Action: <em>harvest</em></b></p>\n                    <p>This is the bee that you just saw.</p>\n                    <img src=\"bees-with-color/bee-B1SM.svg\" width=\"200\">\n                    <p><span class=\"greenText\"><b>Successful harvest!</b></span><br>Your pay has increased by $0.02. Your bonus pay is now $0.60.</p>\n            ","response":0,"trial_type":"html-button-response","trial_index":16,"time_elapsed":298385,"internal_node_id":"0.0-4.0-1.2","subject_id":"60ef4642202c8520a37e19b5","study_id":"60edd13110225f80f9f3709b","session_id":"6196c7085e0e464228a06159","condition":"contingent","relevant_dimensions":["antennae","wings"],"bee_group":{"antennae":"B","wings":"2","pattern":"X","legs":"X"},"bonus":0.06000000000000093},{"rt":1663.0999999940395,"stimulus":"bees-with-color/bee-A1DF.svg","response":0,"trial_type":"image-button-response","trial_index":17,"time_elapsed":300049,"internal_node_id":"0.0-4.0-0.3","subject_id":"60ef4642202c8520a37e19b5","study_id":"60edd13110225f80f9f3709b","session_id":"6196c7085e0e464228a06159","condition":"contingent","relevant_dimensions":["antennae","wings"],"bee_group":{"antennae":"B","wings":"2","pattern":"X","legs":"X"},"action":"harvest","summary":"good-harvest","bonus":0.06000000000000093},{"rt":4827.5,"stimulus":"\n                    <p><b>Action: <em>harvest</em></b></p>\n                    <p>This is the bee that you just saw.</p>\n                    <img src=\"bees-with-color/bee-A1DF.svg\" width=\"200\">\n                    <p><span class=\"greenText\"><b>Successful harvest!</b></span><br>Your pay has increased by $0.02. Your bonus pay is now $0.62.</p>\n            ","response":0,"trial_type":"html-button-response","trial_index":18,"time_elapsed":304877,"internal_node_id":"0.0-4.0-1.3","subject_id":"60ef4642202c8520a37e19b5","study_id":"60edd13110225f80f9f3709b","session_id":"6196c7085e0e464228a06159","condition":"contingent","relevant_dimensions":["antennae","wings"],"bee_group":{"antennae":"B","wings":"2","pattern":"X","legs":"X"},"bonus":0.06000000000000093},{"rt":1352.8999999910593,"stimulus":"bees-with-color/bee-B2DM.svg","response":0,"trial_type":"image-button-response","trial_index":19,"time_elapsed":306231,"internal_node_id":"0.0-4.0-0.4","subject_id":"60ef4642202c8520a37e19b5","study_id":"60edd13110225f80f9f3709b","session_id":"6196c7085e0e464228a06159","condition":"contingent","relevant_dimensions":["antennae","wings"],"bee_group":{"antennae":"B","wings":"2","pattern":"X","legs":"X"},"action":"harvest","summary":"bad-harvest","bonus":0.06000000000000093},{"rt":10930,"stimulus":"\n                    <p><b>Action: <em>harvest</em></b></p>\n                    <p>This is the bee that you just saw.</p>\n                    <img src=\"bees-with-color/bee-B2DM.svg\" width=\"200\">\n                    <p><span class=\"redText\">Bad choice, the bee was angry.</span><br><b>You have been stung!</b><br>Your pay has been decreased by $0.10. Your bonus pay is now $0.52.</p>\n            ","response":0,"trial_type":"html-button-response","trial_index":20,"time_elapsed":317162,"internal_node_id":"0.0-4.0-1.4","subject_id":"60ef4642202c8520a37e19b5","study_id":"60edd13110225f80f9f3709b","session_id":"6196c7085e0e464228a06159","condition":"contingent","relevant_dimensions":["antennae","wings"],"bee_group":{"antennae":"B","wings":"2","pattern":"X","legs":"X"},"bonus":0.06000000000000093},{"rt":1448.5999999940395,"stimulus":"bees-with-color/bee-B2SM.svg","response":0,"trial_type":"image-button-response","trial_index":21,"time_elapsed":318612,"internal_node_id":"0.0-4.0-0.5","subject_id":"60ef4642202c8520a37e19b5","study_id":"60edd13110225f80f9f3709b","session_id":"6196c7085e0e464228a06159","condition":"contingent","relevant_dimensions":["antennae","wings"],"bee_group":{"antennae":"B","wings":"2","pattern":"X","legs":"X"},"action":"harvest","summary":"bad-harvest","bonus":0.06000000000000093},{"rt":2309.800000011921,"stimulus":"\n                    <p><b>Action: <em>harvest</em></b></p>\n                    <p>This is the bee that you just saw.</p>\n                    <img src=\"bees-with-color/bee-B2SM.svg\" width=\"200\">\n                    <p><span class=\"redText\">Bad choice, the bee was angry.</span><br><b>You have been stung!</b><br>Your pay has been decreased by $0.10. Your bonus pay is now $0.42.</p>\n            ","response":0,"trial_type":"html-button-response","trial_index":22,"time_elapsed":320922,"internal_node_id":"0.0-4.0-1.5","subject_id":"60ef4642202c8520a37e19b5","study_id":"60edd13110225f80f9f3709b","session_id":"6196c7085e0e464228a06159","condition":"contingent","relevant_dimensions":["antennae","wings"],"bee_group":{"antennae":"B","wings":"2","pattern":"X","legs":"X"},"bonus":0.06000000000000093},{"rt":1287.2000000029802,"stimulus":"bees-with-color/bee-A2SF.svg","response":0,"trial_type":"image-button-response","trial_index":23,"time_elapsed":322210,"internal_node_id":"0.0-4.0-0.6","subject_id":"60ef4642202c8520a37e19b5","study_id":"60edd13110225f80f9f3709b","session_id":"6196c7085e0e464228a06159","condition":"contingent","relevant_dimensions":["antennae","wings"],"bee_group":{"antennae":"B","wings":"2","pattern":"X","legs":"X"},"action":"harvest","summary":"good-harvest","bonus":0.06000000000000093},{"rt":895.2000000029802,"stimulus":"\n                    <p><b>Action: <em>harvest</em></b></p>\n                    <p>This is the bee that you just saw.</p>\n                    <img src=\"bees-with-color/bee-A2SF.svg\" width=\"200\">\n                    <p><span class=\"greenText\"><b>Successful harvest!</b></span><br>Your pay has increased by $0.02. Your bonus pay is now $0.44.</p>\n            ","response":0,"trial_type":"html-button-response","trial_index":24,"time_elapsed":323106,"internal_node_id":"0.0-4.0-1.6","subject_id":"60ef4642202c8520a37e19b5","study_id":"60edd13110225f80f9f3709b","session_id":"6196c7085e0e464228a06159","condition":"contingent","relevant_dimensions":["antennae","wings"],"bee_group":{"antennae":"B","wings":"2","pattern":"X","legs":"X"},"bonus":0.06000000000000093},{"rt":1312.8999999910593,"stimulus":"bees-with-color/bee-B1DM.svg","response":1,"trial_type":"image-button-response","trial_index":25,"time_elapsed":324420,"internal_node_id":"0.0-4.0-0.7","subject_id":"60ef4642202c8520a37e19b5","study_id":"60edd13110225f80f9f3709b","session_id":"6196c7085e0e464228a06159","condition":"contingent","relevant_dimensions":["antennae","wings"],"bee_group":{"antennae":"B","wings":"2","pattern":"X","legs":"X"},"action":"avoid","summary":"bad-avoid","bonus":0.06000000000000093},{"rt":1283.7999999970198,"stimulus":"\n                    <p><b>Action: <em>avoid</em></b></p>\n                    <p>This is the bee that you just saw.</p>\n                    <img src=\"bees-with-color/bee-B1DM.svg\" width=\"200\">\n                    <p><br>Your bonus pay is unchanged, and remains at $0.44.</p>\n            ","response":0,"trial_type":"html-button-response","trial_index":26,"time_elapsed":325705,"internal_node_id":"0.0-4.0-1.7","subject_id":"60ef4642202c8520a37e19b5","study_id":"60edd13110225f80f9f3709b","session_id":"6196c7085e0e464228a06159","condition":"contingent","relevant_dimensions":["antennae","wings"],"bee_group":{"antennae":"B","wings":"2","pattern":"X","legs":"X"},"bonus":0.06000000000000093},{"rt":1084.2999999970198,"stimulus":"bees-with-color/bee-A1SF.svg","response":0,"trial_type":"image-button-response","trial_index":27,"time_elapsed":326790,"internal_node_id":"0.0-4.0-0.8","subject_id":"60ef4642202c8520a37e19b5","study_id":"60edd13110225f80f9f3709b","session_id":"6196c7085e0e464228a06159","condition":"contingent","relevant_dimensions":["antennae","wings"],"bee_group":{"antennae":"B","wings":"2","pattern":"X","legs":"X"},"action":"harvest","summary":"good-harvest","bonus":0.06000000000000093},{"rt":1319.7999999970198,"stimulus":"\n                    <p><b>Action: <em>harvest</em></b></p>\n                    <p>This is the bee that you just saw.</p>\n                    <img src=\"bees-with-color/bee-A1SF.svg\" width=\"200\">\n                    <p><span class=\"greenText\"><b>Successful harvest!</b></span><br>Your pay has increased by $0.02. Your bonus pay is now $0.46.</p>\n            ","response":0,"trial_type":"html-button-response","trial_index":28,"time_elapsed":328111,"internal_node_id":"0.0-4.0-1.8","subject_id":"60ef4642202c8520a37e19b5","study_id":"60edd13110225f80f9f3709b","session_id":"6196c7085e0e464228a06159","condition":"contingent","relevant_dimensions":["antennae","wings"],"bee_group":{"antennae":"B","wings":"2","pattern":"X","legs":"X"},"bonus":0.06000000000000093},{"rt":1897.4000000059605,"stimulus":"bees-with-color/bee-B2DF.svg","response":1,"trial_type":"image-button-response","trial_index":29,"time_elapsed":330009,"internal_node_id":"0.0-4.0-0.9","subject_id":"60ef4642202c8520a37e19b5","study_id":"60edd13110225f80f9f3709b","session_id":"6196c7085e0e464228a06159","condition":"contingent","relevant_dimensions":["antennae","wings"],"bee_group":{"antennae":"B","wings":"2","pattern":"X","legs":"X"},"action":"avoid","summary":"good-avoid","bonus":0.06000000000000093},{"rt":1794.9000000059605,"stimulus":"\n                    <p><b>Action: <em>avoid</em></b></p>\n                    <p>This is the bee that you just saw.</p>\n                    <img src=\"bees-with-color/bee-B2DF.svg\" width=\"200\">\n                    <p><br>Your bonus pay is unchanged, and remains at $0.46.</p>\n            ","response":0,"trial_type":"html-button-response","trial_index":30,"time_elapsed":331804,"internal_node_id":"0.0-4.0-1.9","subject_id":"60ef4642202c8520a37e19b5","study_id":"60edd13110225f80f9f3709b","session_id":"6196c7085e0e464228a06159","condition":"contingent","relevant_dimensions":["antennae","wings"],"bee_group":{"antennae":"B","wings":"2","pattern":"X","legs":"X"},"bonus":0.06000000000000093},{"rt":1759.2999999970198,"stimulus":"bees-with-color/bee-B1SF.svg","response":0,"trial_type":"image-button-response","trial_index":31,"time_elapsed":333565,"internal_node_id":"0.0-4.0-0.10","subject_id":"60ef4642202c8520a37e19b5","study_id":"60edd13110225f80f9f3709b","session_id":"6196c7085e0e464228a06159","condition":"contingent","relevant_dimensions":["antennae","wings"],"bee_group":{"antennae":"B","wings":"2","pattern":"X","legs":"X"},"action":"harvest","summary":"good-harvest","bonus":0.06000000000000093},{"rt":1307.2000000029802,"stimulus":"\n                    <p><b>Action: <em>harvest</em></b></p>\n                    <p>This is the bee that you just saw.</p>\n                    <img src=\"bees-with-color/bee-B1SF.svg\" width=\"200\">\n                    <p><span class=\"greenText\"><b>Successful harvest!</b></span><br>Your pay has increased by $0.02. Your bonus pay is now $0.48.</p>\n            ","response":0,"trial_type":"html-button-response","trial_index":32,"time_elapsed":334873,"internal_node_id":"0.0-4.0-1.10","subject_id":"60ef4642202c8520a37e19b5","study_id":"60edd13110225f80f9f3709b","session_id":"6196c7085e0e464228a06159","condition":"contingent","relevant_dimensions":["antennae","wings"],"bee_group":{"antennae":"B","wings":"2","pattern":"X","legs":"X"},"bonus":0.06000000000000093},{"rt":2017.5,"stimulus":"bees-with-color/bee-B1DF.svg","response":1,"trial_type":"image-button-response","trial_index":33,"time_elapsed":336891,"internal_node_id":"0.0-4.0-0.11","subject_id":"60ef4642202c8520a37e19b5","study_id":"60edd13110225f80f9f3709b","session_id":"6196c7085e0e464228a06159","condition":"contingent","relevant_dimensions":["antennae","wings"],"bee_group":{"antennae":"B","wings":"2","pattern":"X","legs":"X"},"action":"avoid","summary":"bad-avoid","bonus":0.06000000000000093},{"rt":755.5999999940395,"stimulus":"\n                    <p><b>Action: <em>avoid</em></b></p>\n                    <p>This is the bee that you just saw.</p>\n                    <img src=\"bees-with-color/bee-B1DF.svg\" width=\"200\">\n                    <p><br>Your bonus pay is unchanged, and remains at $0.48.</p>\n            ","response":0,"trial_type":"html-button-response","trial_index":34,"time_elapsed":337647,"internal_node_id":"0.0-4.0-1.11","subject_id":"60ef4642202c8520a37e19b5","study_id":"60edd13110225f80f9f3709b","session_id":"6196c7085e0e464228a06159","condition":"contingent","relevant_dimensions":["antennae","wings"],"bee_group":{"antennae":"B","wings":"2","pattern":"X","legs":"X"},"bonus":0.06000000000000093},{"rt":4607.29999999702,"stimulus":"bees-with-color/bee-A2DM.svg","response":0,"trial_type":"image-button-response","trial_index":35,"time_elapsed":342256,"internal_node_id":"0.0-4.0-0.12","subject_id":"60ef4642202c8520a37e19b5","study_id":"60edd13110225f80f9f3709b","session_id":"6196c7085e0e464228a06159","condition":"contingent","relevant_dimensions":["antennae","wings"],"bee_group":{"antennae":"B","wings":"2","pattern":"X","legs":"X"},"action":"harvest","summary":"good-harvest","bonus":0.06000000000000093},{"rt":762.9000000059605,"stimulus":"\n                    <p><b>Action: <em>harvest</em></b></p>\n                    <p>This is the bee that you just saw.</p>\n                    <img src=\"bees-with-color/bee-A2DM.svg\" width=\"200\">\n                    <p><span class=\"greenText\"><b>Successful harvest!</b></span><br>Your pay has increased by $0.02. Your bonus pay is now $0.50.</p>\n            ","response":0,"trial_type":"html-button-response","trial_index":36,"time_elapsed":343019,"internal_node_id":"0.0-4.0-1.12","subject_id":"60ef4642202c8520a37e19b5","study_id":"60edd13110225f80f9f3709b","session_id":"6196c7085e0e464228a06159","condition":"contingent","relevant_dimensions":["antennae","wings"],"bee_group":{"antennae":"B","wings":"2","pattern":"X","legs":"X"},"bonus":0.06000000000000093},{"rt":1492.9000000059605,"stimulus":"bees-with-color/bee-B2SF.svg","response":0,"trial_type":"image-button-response","trial_index":37,"time_elapsed":344513,"internal_node_id":"0.0-4.0-0.13","subject_id":"60ef4642202c8520a37e19b5","study_id":"60edd13110225f80f9f3709b","session_id":"6196c7085e0e464228a06159","condition":"contingent","relevant_dimensions":["antennae","wings"],"bee_group":{"antennae":"B","wings":"2","pattern":"X","legs":"X"},"action":"harvest","summary":"bad-harvest","bonus":0.06000000000000093},{"rt":4837.600000008941,"stimulus":"\n                    <p><b>Action: <em>harvest</em></b></p>\n                    <p>This is the bee that you just saw.</p>\n                    <img src=\"bees-with-color/bee-B2SF.svg\" width=\"200\">\n                    <p><span class=\"redText\">Bad choice, the bee was angry.</span><br><b>You have been stung!</b><br>Your pay has been decreased by $0.10. Your bonus pay is now $0.40.</p>\n            ","response":0,"trial_type":"html-button-response","trial_index":38,"time_elapsed":349352,"internal_node_id":"0.0-4.0-1.13","subject_id":"60ef4642202c8520a37e19b5","study_id":"60edd13110225f80f9f3709b","session_id":"6196c7085e0e464228a06159","condition":"contingent","relevant_dimensions":["antennae","wings"],"bee_group":{"antennae":"B","wings":"2","pattern":"X","legs":"X"},"bonus":0.06000000000000093},{"rt":1724.8999999910593,"stimulus":"bees-with-color/bee-A1DM.svg","response":0,"trial_type":"image-button-response","trial_index":39,"time_elapsed":351078,"internal_node_id":"0.0-4.0-0.14","subject_id":"60ef4642202c8520a37e19b5","study_id":"60edd13110225f80f9f3709b","session_id":"6196c7085e0e464228a06159","condition":"contingent","relevant_dimensions":["antennae","wings"],"bee_group":{"antennae":"B","wings":"2","pattern":"X","legs":"X"},"action":"harvest","summary":"good-harvest","bonus":0.06000000000000093},{"rt":579.0999999940395,"stimulus":"\n                    <p><b>Action: <em>harvest</em></b></p>\n                    <p>This is the bee that you just saw.</p>\n                    <img src=\"bees-with-color/bee-A1DM.svg\" width=\"200\">\n                    <p><span class=\"greenText\"><b>Successful harvest!</b></span><br>Your pay has increased by $0.02. Your bonus pay is now $0.42.</p>\n            ","response":0,"trial_type":"html-button-response","trial_index":40,"time_elapsed":351658,"internal_node_id":"0.0-4.0-1.14","subject_id":"60ef4642202c8520a37e19b5","study_id":"60edd13110225f80f9f3709b","session_id":"6196c7085e0e464228a06159","condition":"contingent","relevant_dimensions":["antennae","wings"],"bee_group":{"antennae":"B","wings":"2","pattern":"X","legs":"X"},"bonus":0.06000000000000093},{"rt":1527.9000000059605,"stimulus":"bees-with-color/bee-A2DF.svg","response":0,"trial_type":"image-button-response","trial_index":41,"time_elapsed":353186,"internal_node_id":"0.0-4.0-0.15","subject_id":"60ef4642202c8520a37e19b5","study_id":"60edd13110225f80f9f3709b","session_id":"6196c7085e0e464228a06159","condition":"contingent","relevant_dimensions":["antennae","wings"],"bee_group":{"antennae":"B","wings":"2","pattern":"X","legs":"X"},"action":"harvest","summary":"good-harvest","bonus":0.06000000000000093},{"rt":657,"stimulus":"\n                    <p><b>Action: <em>harvest</em></b></p>\n                    <p>This is the bee that you just saw.</p>\n                    <img src=\"bees-with-color/bee-A2DF.svg\" width=\"200\">\n                    <p><span class=\"greenText\"><b>Successful harvest!</b></span><br>Your pay has increased by $0.02. Your bonus pay is now $0.44.</p>\n            ","response":0,"trial_type":"html-button-response","trial_index":42,"time_elapsed":353844,"internal_node_id":"0.0-4.0-1.15","subject_id":"60ef4642202c8520a37e19b5","study_id":"60edd13110225f80f9f3709b","session_id":"6196c7085e0e464228a06159","condition":"contingent","relevant_dimensions":["antennae","wings"],"bee_group":{"antennae":"B","wings":"2","pattern":"X","legs":"X"},"bonus":0.06000000000000093},{"rt":1467.5,"stimulus":"bees-with-color/bee-A2DF.svg","response":0,"trial_type":"image-button-response","trial_index":43,"time_elapsed":355312,"internal_node_id":"0.0-4.0-0.16","subject_id":"60ef4642202c8520a37e19b5","study_id":"60edd13110225f80f9f3709b","session_id":"6196c7085e0e464228a06159","condition":"contingent","relevant_dimensions":["antennae","wings"],"bee_group":{"antennae":"B","wings":"2","pattern":"X","legs":"X"},"action":"harvest","summary":"good-harvest","bonus":0.06000000000000093},{"rt":871.2999999970198,"stimulus":"\n                    <p><b>Action: <em>harvest</em></b></p>\n                    <p>This is the bee that you just saw.</p>\n                    <img src=\"bees-with-color/bee-A2DF.svg\" width=\"200\">\n                    <p><span class=\"greenText\"><b>Successful harvest!</b></span><br>Your pay has increased by $0.02. Your bonus pay is now $0.46.</p>\n            ","response":0,"trial_type":"html-button-response","trial_index":44,"time_elapsed":356184,"internal_node_id":"0.0-4.0-1.16","subject_id":"60ef4642202c8520a37e19b5","study_id":"60edd13110225f80f9f3709b","session_id":"6196c7085e0e464228a06159","condition":"contingent","relevant_dimensions":["antennae","wings"],"bee_group":{"antennae":"B","wings":"2","pattern":"X","legs":"X"},"bonus":0.06000000000000093},{"rt":1071.3999999910593,"stimulus":"bees-with-color/bee-B1SM.svg","response":1,"trial_type":"image-button-response","trial_index":45,"time_elapsed":357257,"internal_node_id":"0.0-4.0-0.17","subject_id":"60ef4642202c8520a37e19b5","study_id":"60edd13110225f80f9f3709b","session_id":"6196c7085e0e464228a06159","condition":"contingent","relevant_dimensions":["antennae","wings"],"bee_group":{"antennae":"B","wings":"2","pattern":"X","legs":"X"},"action":"avoid","summary":"bad-avoid","bonus":0.06000000000000093},{"rt":943.0999999940395,"stimulus":"\n                    <p><b>Action: <em>avoid</em></b></p>\n                    <p>This is the bee that you just saw.</p>\n                    <img src=\"bees-with-color/bee-B1SM.svg\" width=\"200\">\n                    <p><br>Your bonus pay is unchanged, and remains at $0.46.</p>\n            ","response":0,"trial_type":"html-button-response","trial_index":46,"time_elapsed":358201,"internal_node_id":"0.0-4.0-1.17","subject_id":"60ef4642202c8520a37e19b5","study_id":"60edd13110225f80f9f3709b","session_id":"6196c7085e0e464228a06159","condition":"contingent","relevant_dimensions":["antennae","wings"],"bee_group":{"antennae":"B","wings":"2","pattern":"X","legs":"X"},"bonus":0.06000000000000093},{"rt":1915,"stimulus":"bees-with-color/bee-A2SM.svg","response":0,"trial_type":"image-button-response","trial_index":47,"time_elapsed":360116,"internal_node_id":"0.0-4.0-0.18","subject_id":"60ef4642202c8520a37e19b5","study_id":"60edd13110225f80f9f3709b","session_id":"6196c7085e0e464228a06159","condition":"contingent","relevant_dimensions":["antennae","wings"],"bee_group":{"antennae":"B","wings":"2","pattern":"X","legs":"X"},"action":"harvest","summary":"good-harvest","bonus":0.06000000000000093},{"rt":677.8000000119209,"stimulus":"\n                    <p><b>Action: <em>harvest</em></b></p>\n                    <p>This is the bee that you just saw.</p>\n                    <img src=\"bees-with-color/bee-A2SM.svg\" width=\"200\">\n                    <p><span class=\"greenText\"><b>Successful harvest!</b></span><br>Your pay has increased by $0.02. Your bonus pay is now $0.48.</p>\n            ","response":0,"trial_type":"html-button-response","trial_index":48,"time_elapsed":360795,"internal_node_id":"0.0-4.0-1.18","subject_id":"60ef4642202c8520a37e19b5","study_id":"60edd13110225f80f9f3709b","session_id":"6196c7085e0e464228a06159","condition":"contingent","relevant_dimensions":["antennae","wings"],"bee_group":{"antennae":"B","wings":"2","pattern":"X","legs":"X"},"bonus":0.06000000000000093},{"rt":1503,"stimulus":"bees-with-color/bee-B2DM.svg","response":1,"trial_type":"image-button-response","trial_index":49,"time_elapsed":362298,"internal_node_id":"0.0-4.0-0.19","subject_id":"60ef4642202c8520a37e19b5","study_id":"60edd13110225f80f9f3709b","session_id":"6196c7085e0e464228a06159","condition":"contingent","relevant_dimensions":["antennae","wings"],"bee_group":{"antennae":"B","wings":"2","pattern":"X","legs":"X"},"action":"avoid","summary":"good-avoid","bonus":0.06000000000000093},{"rt":553.2000000029802,"stimulus":"\n                    <p><b>Action: <em>avoid</em></b></p>\n                    <p>This is the bee that you just saw.</p>\n                    <img src=\"bees-with-color/bee-B2DM.svg\" width=\"200\">\n                    <p><br>Your bonus pay is unchanged, and remains at $0.48.</p>\n            ","response":0,"trial_type":"html-button-response","trial_index":50,"time_elapsed":362852,"internal_node_id":"0.0-4.0-1.19","subject_id":"60ef4642202c8520a37e19b5","study_id":"60edd13110225f80f9f3709b","session_id":"6196c7085e0e464228a06159","condition":"contingent","relevant_dimensions":["antennae","wings"],"bee_group":{"antennae":"B","wings":"2","pattern":"X","legs":"X"},"bonus":0.06000000000000093},{"rt":3861.4000000059605,"stimulus":"bees-with-color/bee-B2DF.svg","response":0,"trial_type":"image-button-response","trial_index":51,"time_elapsed":366715,"internal_node_id":"0.0-4.0-0.20","subject_id":"60ef4642202c8520a37e19b5","study_id":"60edd13110225f80f9f3709b","session_id":"6196c7085e0e464228a06159","condition":"contingent","relevant_dimensions":["antennae","wings"],"bee_group":{"antennae":"B","wings":"2","pattern":"X","legs":"X"},"action":"harvest","summary":"bad-harvest","bonus":0.06000000000000093},{"rt":949.7000000029802,"stimulus":"\n                    <p><b>Action: <em>harvest</em></b></p>\n                    <p>This is the bee that you just saw.</p>\n                    <img src=\"bees-with-color/bee-B2DF.svg\" width=\"200\">\n                    <p><span class=\"redText\">Bad choice, the bee was angry.</span><br><b>You have been stung!</b><br>Your pay has been decreased by $0.10. Your bonus pay is now $0.38.</p>\n            ","response":0,"trial_type":"html-button-response","trial_index":52,"time_elapsed":367665,"internal_node_id":"0.0-4.0-1.20","subject_id":"60ef4642202c8520a37e19b5","study_id":"60edd13110225f80f9f3709b","session_id":"6196c7085e0e464228a06159","condition":"contingent","relevant_dimensions":["antennae","wings"],"bee_group":{"antennae":"B","wings":"2","pattern":"X","legs":"X"},"bonus":0.06000000000000093},{"rt":3068.8999999910593,"stimulus":"bees-with-color/bee-A1DF.svg","response":0,"trial_type":"image-button-response","trial_index":53,"time_elapsed":370735,"internal_node_id":"0.0-4.0-0.21","subject_id":"60ef4642202c8520a37e19b5","study_id":"60edd13110225f80f9f3709b","session_id":"6196c7085e0e464228a06159","condition":"contingent","relevant_dimensions":["antennae","wings"],"bee_group":{"antennae":"B","wings":"2","pattern":"X","legs":"X"},"action":"harvest","summary":"good-harvest","bonus":0.06000000000000093},{"rt":797.2999999970198,"stimulus":"\n                    <p><b>Action: <em>harvest</em></b></p>\n                    <p>This is the bee that you just saw.</p>\n                    <img src=\"bees-with-color/bee-A1DF.svg\" width=\"200\">\n                    <p><span class=\"greenText\"><b>Successful harvest!</b></span><br>Your pay has increased by $0.02. Your bonus pay is now $0.40.</p>\n            ","response":0,"trial_type":"html-button-response","trial_index":54,"time_elapsed":371533,"internal_node_id":"0.0-4.0-1.21","subject_id":"60ef4642202c8520a37e19b5","study_id":"60edd13110225f80f9f3709b","session_id":"6196c7085e0e464228a06159","condition":"contingent","relevant_dimensions":["antennae","wings"],"bee_group":{"antennae":"B","wings":"2","pattern":"X","legs":"X"},"bonus":0.06000000000000093},{"rt":3069.0999999940395,"stimulus":"bees-with-color/bee-B1SF.svg","response":0,"trial_type":"image-button-response","trial_index":55,"time_elapsed":374603,"internal_node_id":"0.0-4.0-0.22","subject_id":"60ef4642202c8520a37e19b5","study_id":"60edd13110225f80f9f3709b","session_id":"6196c7085e0e464228a06159","condition":"contingent","relevant_dimensions":["antennae","wings"],"bee_group":{"antennae":"B","wings":"2","pattern":"X","legs":"X"},"action":"harvest","summary":"good-harvest","bonus":0.06000000000000093},{"rt":699.7000000029802,"stimulus":"\n                    <p><b>Action: <em>harvest</em></b></p>\n                    <p>This is the bee that you just saw.</p>\n                    <img src=\"bees-with-color/bee-B1SF.svg\" width=\"200\">\n                    <p><span class=\"greenText\"><b>Successful harvest!</b></span><br>Your pay has increased by $0.02. Your bonus pay is now $0.42.</p>\n            ","response":0,"trial_type":"html-button-response","trial_index":56,"time_elapsed":375304,"internal_node_id":"0.0-4.0-1.22","subject_id":"60ef4642202c8520a37e19b5","study_id":"60edd13110225f80f9f3709b","session_id":"6196c7085e0e464228a06159","condition":"contingent","relevant_dimensions":["antennae","wings"],"bee_group":{"antennae":"B","wings":"2","pattern":"X","legs":"X"},"bonus":0.06000000000000093},{"rt":1333.0999999940395,"stimulus":"bees-with-color/bee-A1SM.svg","response":0,"trial_type":"image-button-response","trial_index":57,"time_elapsed":376638,"internal_node_id":"0.0-4.0-0.23","subject_id":"60ef4642202c8520a37e19b5","study_id":"60edd13110225f80f9f3709b","session_id":"6196c7085e0e464228a06159","condition":"contingent","relevant_dimensions":["antennae","wings"],"bee_group":{"antennae":"B","wings":"2","pattern":"X","legs":"X"},"action":"harvest","summary":"good-harvest","bonus":0.06000000000000093},{"rt":756.7999999970198,"stimulus":"\n                    <p><b>Action: <em>harvest</em></b></p>\n                    <p>This is the bee that you just saw.</p>\n                    <img src=\"bees-with-color/bee-A1SM.svg\" width=\"200\">\n                    <p><span class=\"greenText\"><b>Successful harvest!</b></span><br>Your pay has increased by $0.02. Your bonus pay is now $0.44.</p>\n            ","response":0,"trial_type":"html-button-response","trial_index":58,"time_elapsed":377395,"internal_node_id":"0.0-4.0-1.23","subject_id":"60ef4642202c8520a37e19b5","study_id":"60edd13110225f80f9f3709b","session_id":"6196c7085e0e464228a06159","condition":"contingent","relevant_dimensions":["antennae","wings"],"bee_group":{"antennae":"B","wings":"2","pattern":"X","legs":"X"},"bonus":0.06000000000000093},{"rt":1667.5999999940395,"stimulus":"bees-with-color/bee-B2SF.svg","response":0,"trial_type":"image-button-response","trial_index":59,"time_elapsed":379064,"internal_node_id":"0.0-4.0-0.24","subject_id":"60ef4642202c8520a37e19b5","study_id":"60edd13110225f80f9f3709b","session_id":"6196c7085e0e464228a06159","condition":"contingent","relevant_dimensions":["antennae","wings"],"bee_group":{"antennae":"B","wings":"2","pattern":"X","legs":"X"},"action":"harvest","summary":"bad-harvest","bonus":0.06000000000000093},{"rt":3173.300000011921,"stimulus":"\n                    <p><b>Action: <em>harvest</em></b></p>\n                    <p>This is the bee that you just saw.</p>\n                    <img src=\"bees-with-color/bee-B2SF.svg\" width=\"200\">\n                    <p><span class=\"redText\">Bad choice, the bee was angry.</span><br><b>You have been stung!</b><br>Your pay has been decreased by $0.10. Your bonus pay is now $0.34.</p>\n            ","response":0,"trial_type":"html-button-response","trial_index":60,"time_elapsed":382238,"internal_node_id":"0.0-4.0-1.24","subject_id":"60ef4642202c8520a37e19b5","study_id":"60edd13110225f80f9f3709b","session_id":"6196c7085e0e464228a06159","condition":"contingent","relevant_dimensions":["antennae","wings"],"bee_group":{"antennae":"B","wings":"2","pattern":"X","legs":"X"},"bonus":0.06000000000000093},{"rt":1459.3999999910593,"stimulus":"bees-with-color/bee-B1DM.svg","response":0,"trial_type":"image-button-response","trial_index":61,"time_elapsed":383698,"internal_node_id":"0.0-4.0-0.25","subject_id":"60ef4642202c8520a37e19b5","study_id":"60edd13110225f80f9f3709b","session_id":"6196c7085e0e464228a06159","condition":"contingent","relevant_dimensions":["antennae","wings"],"bee_group":{"antennae":"B","wings":"2","pattern":"X","legs":"X"},"action":"harvest","summary":"good-harvest","bonus":0.06000000000000093},{"rt":549,"stimulus":"\n                    <p><b>Action: <em>harvest</em></b></p>\n                    <p>This is the bee that you just saw.</p>\n                    <img src=\"bees-with-color/bee-B1DM.svg\" width=\"200\">\n                    <p><span class=\"greenText\"><b>Successful harvest!</b></span><br>Your pay has increased by $0.02. Your bonus pay is now $0.36.</p>\n            ","response":0,"trial_type":"html-button-response","trial_index":62,"time_elapsed":384248,"internal_node_id":"0.0-4.0-1.25","subject_id":"60ef4642202c8520a37e19b5","study_id":"60edd13110225f80f9f3709b","session_id":"6196c7085e0e464228a06159","condition":"contingent","relevant_dimensions":["antennae","wings"],"bee_group":{"antennae":"B","wings":"2","pattern":"X","legs":"X"},"bonus":0.06000000000000093},{"rt":1777.5,"stimulus":"bees-with-color/bee-B1DF.svg","response":1,"trial_type":"image-button-response","trial_index":63,"time_elapsed":386026,"internal_node_id":"0.0-4.0-0.26","subject_id":"60ef4642202c8520a37e19b5","study_id":"60edd13110225f80f9f3709b","session_id":"6196c7085e0e464228a06159","condition":"contingent","relevant_dimensions":["antennae","wings"],"bee_group":{"antennae":"B","wings":"2","pattern":"X","legs":"X"},"action":"avoid","summary":"bad-avoid","bonus":0.06000000000000093},{"rt":851.4000000059605,"stimulus":"\n                    <p><b>Action: <em>avoid</em></b></p>\n                    <p>This is the bee that you just saw.</p>\n                    <img src=\"bees-with-color/bee-B1DF.svg\" width=\"200\">\n                    <p><br>Your bonus pay is unchanged, and remains at $0.36.</p>\n            ","response":0,"trial_type":"html-button-response","trial_index":64,"time_elapsed":386878,"internal_node_id":"0.0-4.0-1.26","subject_id":"60ef4642202c8520a37e19b5","study_id":"60edd13110225f80f9f3709b","session_id":"6196c7085e0e464228a06159","condition":"contingent","relevant_dimensions":["antennae","wings"],"bee_group":{"antennae":"B","wings":"2","pattern":"X","legs":"X"},"bonus":0.06000000000000093},{"rt":1359.5,"stimulus":"bees-with-color/bee-A2SF.svg","response":0,"trial_type":"image-button-response","trial_index":65,"time_elapsed":388238,"internal_node_id":"0.0-4.0-0.27","subject_id":"60ef4642202c8520a37e19b5","study_id":"60edd13110225f80f9f3709b","session_id":"6196c7085e0e464228a06159","condition":"contingent","relevant_dimensions":["antennae","wings"],"bee_group":{"antennae":"B","wings":"2","pattern":"X","legs":"X"},"action":"harvest","summary":"good-harvest","bonus":0.06000000000000093},{"rt":543.2999999970198,"stimulus":"\n                    <p><b>Action: <em>harvest</em></b></p>\n                    <p>This is the bee that you just saw.</p>\n                    <img src=\"bees-with-color/bee-A2SF.svg\" width=\"200\">\n                    <p><span class=\"greenText\"><b>Successful harvest!</b></span><br>Your pay has increased by $0.02. Your bonus pay is now $0.38.</p>\n            ","response":0,"trial_type":"html-button-response","trial_index":66,"time_elapsed":388782,"internal_node_id":"0.0-4.0-1.27","subject_id":"60ef4642202c8520a37e19b5","study_id":"60edd13110225f80f9f3709b","session_id":"6196c7085e0e464228a06159","condition":"contingent","relevant_dimensions":["antennae","wings"],"bee_group":{"antennae":"B","wings":"2","pattern":"X","legs":"X"},"bonus":0.06000000000000093},{"rt":1077.3999999910593,"stimulus":"bees-with-color/bee-A1SF.svg","response":0,"trial_type":"image-button-response","trial_index":67,"time_elapsed":389861,"internal_node_id":"0.0-4.0-0.28","subject_id":"60ef4642202c8520a37e19b5","study_id":"60edd13110225f80f9f3709b","session_id":"6196c7085e0e464228a06159","condition":"contingent","relevant_dimensions":["antennae","wings"],"bee_group":{"antennae":"B","wings":"2","pattern":"X","legs":"X"},"action":"harvest","summary":"good-harvest","bonus":0.06000000000000093},{"rt":492.8999999910593,"stimulus":"\n                    <p><b>Action: <em>harvest</em></b></p>\n                    <p>This is the bee that you just saw.</p>\n                    <img src=\"bees-with-color/bee-A1SF.svg\" width=\"200\">\n                    <p><span class=\"greenText\"><b>Successful harvest!</b></span><br>Your pay has increased by $0.02. Your bonus pay is now $0.40.</p>\n            ","response":0,"trial_type":"html-button-response","trial_index":68,"time_elapsed":390354,"internal_node_id":"0.0-4.0-1.28","subject_id":"60ef4642202c8520a37e19b5","study_id":"60edd13110225f80f9f3709b","session_id":"6196c7085e0e464228a06159","condition":"contingent","relevant_dimensions":["antennae","wings"],"bee_group":{"antennae":"B","wings":"2","pattern":"X","legs":"X"},"bonus":0.06000000000000093},{"rt":949.7000000029802,"stimulus":"bees-with-color/bee-B2SM.svg","response":0,"trial_type":"image-button-response","trial_index":69,"time_elapsed":391305,"internal_node_id":"0.0-4.0-0.29","subject_id":"60ef4642202c8520a37e19b5","study_id":"60edd13110225f80f9f3709b","session_id":"6196c7085e0e464228a06159","condition":"contingent","relevant_dimensions":["antennae","wings"],"bee_group":{"antennae":"B","wings":"2","pattern":"X","legs":"X"},"action":"harvest","summary":"bad-harvest","bonus":0.06000000000000093},{"rt":4109.0999999940395,"stimulus":"\n                    <p><b>Action: <em>harvest</em></b></p>\n                    <p>This is the bee that you just saw.</p>\n                    <img src=\"bees-with-color/bee-B2SM.svg\" width=\"200\">\n                    <p><span class=\"redText\">Bad choice, the bee was angry.</span><br><b>You have been stung!</b><br>Your pay has been decreased by $0.10. Your bonus pay is now $0.30.</p>\n            ","response":0,"trial_type":"html-button-response","trial_index":70,"time_elapsed":395415,"internal_node_id":"0.0-4.0-1.29","subject_id":"60ef4642202c8520a37e19b5","study_id":"60edd13110225f80f9f3709b","session_id":"6196c7085e0e464228a06159","condition":"contingent","relevant_dimensions":["antennae","wings"],"bee_group":{"antennae":"B","wings":"2","pattern":"X","legs":"X"},"bonus":0.06000000000000093},{"rt":2204.9000000059605,"stimulus":"bees-with-color/bee-A2DM.svg","response":0,"trial_type":"image-button-response","trial_index":71,"time_elapsed":397620,"internal_node_id":"0.0-4.0-0.30","subject_id":"60ef4642202c8520a37e19b5","study_id":"60edd13110225f80f9f3709b","session_id":"6196c7085e0e464228a06159","condition":"contingent","relevant_dimensions":["antennae","wings"],"bee_group":{"antennae":"B","wings":"2","pattern":"X","legs":"X"},"action":"harvest","summary":"good-harvest","bonus":0.06000000000000093},{"rt":521.3999999910593,"stimulus":"\n                    <p><b>Action: <em>harvest</em></b></p>\n                    <p>This is the bee that you just saw.</p>\n                    <img src=\"bees-with-color/bee-A2DM.svg\" width=\"200\">\n                    <p><span class=\"greenText\"><b>Successful harvest!</b></span><br>Your pay has increased by $0.02. Your bonus pay is now $0.32.</p>\n            ","response":0,"trial_type":"html-button-response","trial_index":72,"time_elapsed":398143,"internal_node_id":"0.0-4.0-1.30","subject_id":"60ef4642202c8520a37e19b5","study_id":"60edd13110225f80f9f3709b","session_id":"6196c7085e0e464228a06159","condition":"contingent","relevant_dimensions":["antennae","wings"],"bee_group":{"antennae":"B","wings":"2","pattern":"X","legs":"X"},"bonus":0.06000000000000093},{"rt":1197.199999988079,"stimulus":"bees-with-color/bee-A1DM.svg","response":0,"trial_type":"image-button-response","trial_index":73,"time_elapsed":399340,"internal_node_id":"0.0-4.0-0.31","subject_id":"60ef4642202c8520a37e19b5","study_id":"60edd13110225f80f9f3709b","session_id":"6196c7085e0e464228a06159","condition":"contingent","relevant_dimensions":["antennae","wings"],"bee_group":{"antennae":"B","wings":"2","pattern":"X","legs":"X"},"action":"harvest","summary":"good-harvest","bonus":0.06000000000000093},{"rt":567.2999999970198,"stimulus":"\n                    <p><b>Action: <em>harvest</em></b></p>\n                    <p>This is the bee that you just saw.</p>\n                    <img src=\"bees-with-color/bee-A1DM.svg\" width=\"200\">\n                    <p><span class=\"greenText\"><b>Successful harvest!</b></span><br>Your pay has increased by $0.02. Your bonus pay is now $0.34.</p>\n            ","response":0,"trial_type":"html-button-response","trial_index":74,"time_elapsed":399909,"internal_node_id":"0.0-4.0-1.31","subject_id":"60ef4642202c8520a37e19b5","study_id":"60edd13110225f80f9f3709b","session_id":"6196c7085e0e464228a06159","condition":"contingent","relevant_dimensions":["antennae","wings"],"bee_group":{"antennae":"B","wings":"2","pattern":"X","legs":"X"},"bonus":0.06000000000000093},{"rt":3300.1000000089407,"stimulus":"bees-with-color/bee-B1SF.svg","response":0,"trial_type":"image-button-response","trial_index":75,"time_elapsed":403209,"internal_node_id":"0.0-4.0-0.32","subject_id":"60ef4642202c8520a37e19b5","study_id":"60edd13110225f80f9f3709b","session_id":"6196c7085e0e464228a06159","condition":"contingent","relevant_dimensions":["antennae","wings"],"bee_group":{"antennae":"B","wings":"2","pattern":"X","legs":"X"},"action":"harvest","summary":"good-harvest","bonus":0.06000000000000093},{"rt":908.9000000059605,"stimulus":"\n                    <p><b>Action: <em>harvest</em></b></p>\n                    <p>This is the bee that you just saw.</p>\n                    <img src=\"bees-with-color/bee-B1SF.svg\" width=\"200\">\n                    <p><span class=\"greenText\"><b>Successful harvest!</b></span><br>Your pay has increased by $0.02. Your bonus pay is now $0.36.</p>\n            ","response":0,"trial_type":"html-button-response","trial_index":76,"time_elapsed":404119,"internal_node_id":"0.0-4.0-1.32","subject_id":"60ef4642202c8520a37e19b5","study_id":"60edd13110225f80f9f3709b","session_id":"6196c7085e0e464228a06159","condition":"contingent","relevant_dimensions":["antennae","wings"],"bee_group":{"antennae":"B","wings":"2","pattern":"X","legs":"X"},"bonus":0.06000000000000093},{"rt":5015.70000000298,"stimulus":"bees-with-color/bee-B2DF.svg","response":1,"trial_type":"image-button-response","trial_index":77,"time_elapsed":409136,"internal_node_id":"0.0-4.0-0.33","subject_id":"60ef4642202c8520a37e19b5","study_id":"60edd13110225f80f9f3709b","session_id":"6196c7085e0e464228a06159","condition":"contingent","relevant_dimensions":["antennae","wings"],"bee_group":{"antennae":"B","wings":"2","pattern":"X","legs":"X"},"action":"avoid","summary":"good-avoid","bonus":0.06000000000000093},{"rt":957.1000000089407,"stimulus":"\n                    <p><b>Action: <em>avoid</em></b></p>\n                    <p>This is the bee that you just saw.</p>\n                    <img src=\"bees-with-color/bee-B2DF.svg\" width=\"200\">\n                    <p><br>Your bonus pay is unchanged, and remains at $0.36.</p>\n            ","response":0,"trial_type":"html-button-response","trial_index":78,"time_elapsed":410094,"internal_node_id":"0.0-4.0-1.33","subject_id":"60ef4642202c8520a37e19b5","study_id":"60edd13110225f80f9f3709b","session_id":"6196c7085e0e464228a06159","condition":"contingent","relevant_dimensions":["antennae","wings"],"bee_group":{"antennae":"B","wings":"2","pattern":"X","legs":"X"},"bonus":0.06000000000000093},{"rt":7925.5,"stimulus":"bees-with-color/bee-B2DM.svg","response":0,"trial_type":"image-button-response","trial_index":79,"time_elapsed":418020,"internal_node_id":"0.0-4.0-0.34","subject_id":"60ef4642202c8520a37e19b5","study_id":"60edd13110225f80f9f3709b","session_id":"6196c7085e0e464228a06159","condition":"contingent","relevant_dimensions":["antennae","wings"],"bee_group":{"antennae":"B","wings":"2","pattern":"X","legs":"X"},"action":"harvest","summary":"bad-harvest","bonus":0.06000000000000093},{"rt":1947.5999999940395,"stimulus":"\n                    <p><b>Action: <em>harvest</em></b></p>\n                    <p>This is the bee that you just saw.</p>\n                    <img src=\"bees-with-color/bee-B2DM.svg\" width=\"200\">\n                    <p><span class=\"redText\">Bad choice, the bee was angry.</span><br><b>You have been stung!</b><br>Your pay has been decreased by $0.10. Your bonus pay is now $0.26.</p>\n            ","response":0,"trial_type":"html-button-response","trial_index":80,"time_elapsed":419968,"internal_node_id":"0.0-4.0-1.34","subject_id":"60ef4642202c8520a37e19b5","study_id":"60edd13110225f80f9f3709b","session_id":"6196c7085e0e464228a06159","condition":"contingent","relevant_dimensions":["antennae","wings"],"bee_group":{"antennae":"B","wings":"2","pattern":"X","legs":"X"},"bonus":0.06000000000000093},{"rt":1712.7999999970198,"stimulus":"bees-with-color/bee-B1DM.svg","response":1,"trial_type":"image-button-response","trial_index":81,"time_elapsed":421682,"internal_node_id":"0.0-4.0-0.35","subject_id":"60ef4642202c8520a37e19b5","study_id":"60edd13110225f80f9f3709b","session_id":"6196c7085e0e464228a06159","condition":"contingent","relevant_dimensions":["antennae","wings"],"bee_group":{"antennae":"B","wings":"2","pattern":"X","legs":"X"},"action":"avoid","summary":"bad-avoid","bonus":0.06000000000000093},{"rt":1203.4000000059605,"stimulus":"\n                    <p><b>Action: <em>avoid</em></b></p>\n                    <p>This is the bee that you just saw.</p>\n                    <img src=\"bees-with-color/bee-B1DM.svg\" width=\"200\">\n                    <p><br>Your bonus pay is unchanged, and remains at $0.26.</p>\n            ","response":0,"trial_type":"html-button-response","trial_index":82,"time_elapsed":422886,"internal_node_id":"0.0-4.0-1.35","subject_id":"60ef4642202c8520a37e19b5","study_id":"60edd13110225f80f9f3709b","session_id":"6196c7085e0e464228a06159","condition":"contingent","relevant_dimensions":["antennae","wings"],"bee_group":{"antennae":"B","wings":"2","pattern":"X","legs":"X"},"bonus":0.06000000000000093},{"rt":1403.0999999940395,"stimulus":"bees-with-color/bee-A2DF.svg","response":0,"trial_type":"image-button-response","trial_index":83,"time_elapsed":424290,"internal_node_id":"0.0-4.0-0.36","subject_id":"60ef4642202c8520a37e19b5","study_id":"60edd13110225f80f9f3709b","session_id":"6196c7085e0e464228a06159","condition":"contingent","relevant_dimensions":["antennae","wings"],"bee_group":{"antennae":"B","wings":"2","pattern":"X","legs":"X"},"action":"harvest","summary":"good-harvest","bonus":0.06000000000000093},{"rt":633.2999999970198,"stimulus":"\n                    <p><b>Action: <em>harvest</em></b></p>\n                    <p>This is the bee that you just saw.</p>\n                    <img src=\"bees-with-color/bee-A2DF.svg\" width=\"200\">\n                    <p><span class=\"greenText\"><b>Successful harvest!</b></span><br>Your pay has increased by $0.02. Your bonus pay is now $0.28.</p>\n            ","response":0,"trial_type":"html-button-response","trial_index":84,"time_elapsed":424924,"internal_node_id":"0.0-4.0-1.36","subject_id":"60ef4642202c8520a37e19b5","study_id":"60edd13110225f80f9f3709b","session_id":"6196c7085e0e464228a06159","condition":"contingent","relevant_dimensions":["antennae","wings"],"bee_group":{"antennae":"B","wings":"2","pattern":"X","legs":"X"},"bonus":0.06000000000000093},{"rt":493.40000000596046,"stimulus":"bees-with-color/bee-A1DF.svg","response":0,"trial_type":"image-button-response","trial_index":85,"time_elapsed":425418,"internal_node_id":"0.0-4.0-0.37","subject_id":"60ef4642202c8520a37e19b5","study_id":"60edd13110225f80f9f3709b","session_id":"6196c7085e0e464228a06159","condition":"contingent","relevant_dimensions":["antennae","wings"],"bee_group":{"antennae":"B","wings":"2","pattern":"X","legs":"X"},"action":"harvest","summary":"good-harvest","bonus":0.06000000000000093},{"rt":649.2000000029802,"stimulus":"\n                    <p><b>Action: <em>harvest</em></b></p>\n                    <p>This is the bee that you just saw.</p>\n                    <img src=\"bees-with-color/bee-A1DF.svg\" width=\"200\">\n                    <p><span class=\"greenText\"><b>Successful harvest!</b></span><br>Your pay has increased by $0.02. Your bonus pay is now $0.30.</p>\n            ","response":0,"trial_type":"html-button-response","trial_index":86,"time_elapsed":426068,"internal_node_id":"0.0-4.0-1.37","subject_id":"60ef4642202c8520a37e19b5","study_id":"60edd13110225f80f9f3709b","session_id":"6196c7085e0e464228a06159","condition":"contingent","relevant_dimensions":["antennae","wings"],"bee_group":{"antennae":"B","wings":"2","pattern":"X","legs":"X"},"bonus":0.06000000000000093},{"rt":1130,"stimulus":"bees-with-color/bee-A2DM.svg","response":0,"trial_type":"image-button-response","trial_index":87,"time_elapsed":427199,"internal_node_id":"0.0-4.0-0.38","subject_id":"60ef4642202c8520a37e19b5","study_id":"60edd13110225f80f9f3709b","session_id":"6196c7085e0e464228a06159","condition":"contingent","relevant_dimensions":["antennae","wings"],"bee_group":{"antennae":"B","wings":"2","pattern":"X","legs":"X"},"action":"harvest","summary":"good-harvest","bonus":0.06000000000000093},{"rt":589.2999999970198,"stimulus":"\n                    <p><b>Action: <em>harvest</em></b></p>\n                    <p>This is the bee that you just saw.</p>\n                    <img src=\"bees-with-color/bee-A2DM.svg\" width=\"200\">\n                    <p><span class=\"greenText\"><b>Successful harvest!</b></span><br>Your pay has increased by $0.02. Your bonus pay is now $0.32.</p>\n            ","response":0,"trial_type":"html-button-response","trial_index":88,"time_elapsed":427789,"internal_node_id":"0.0-4.0-1.38","subject_id":"60ef4642202c8520a37e19b5","study_id":"60edd13110225f80f9f3709b","session_id":"6196c7085e0e464228a06159","condition":"contingent","relevant_dimensions":["antennae","wings"],"bee_group":{"antennae":"B","wings":"2","pattern":"X","legs":"X"},"bonus":0.06000000000000093},{"rt":1533,"stimulus":"bees-with-color/bee-A2SM.svg","response":0,"trial_type":"image-button-response","trial_index":89,"time_elapsed":429323,"internal_node_id":"0.0-4.0-0.39","subject_id":"60ef4642202c8520a37e19b5","study_id":"60edd13110225f80f9f3709b","session_id":"6196c7085e0e464228a06159","condition":"contingent","relevant_dimensions":["antennae","wings"],"bee_group":{"antennae":"B","wings":"2","pattern":"X","legs":"X"},"action":"harvest","summary":"good-harvest","bonus":0.06000000000000093},{"rt":569.2999999970198,"stimulus":"\n                    <p><b>Action: <em>harvest</em></b></p>\n                    <p>This is the bee that you just saw.</p>\n                    <img src=\"bees-with-color/bee-A2SM.svg\" width=\"200\">\n                    <p><span class=\"greenText\"><b>Successful harvest!</b></span><br>Your pay has increased by $0.02. Your bonus pay is now $0.34.</p>\n            ","response":0,"trial_type":"html-button-response","trial_index":90,"time_elapsed":429893,"internal_node_id":"0.0-4.0-1.39","subject_id":"60ef4642202c8520a37e19b5","study_id":"60edd13110225f80f9f3709b","session_id":"6196c7085e0e464228a06159","condition":"contingent","relevant_dimensions":["antennae","wings"],"bee_group":{"antennae":"B","wings":"2","pattern":"X","legs":"X"},"bonus":0.06000000000000093},{"rt":1239.9000000059605,"stimulus":"bees-with-color/bee-A2SF.svg","response":0,"trial_type":"image-button-response","trial_index":91,"time_elapsed":431133,"internal_node_id":"0.0-4.0-0.40","subject_id":"60ef4642202c8520a37e19b5","study_id":"60edd13110225f80f9f3709b","session_id":"6196c7085e0e464228a06159","condition":"contingent","relevant_dimensions":["antennae","wings"],"bee_group":{"antennae":"B","wings":"2","pattern":"X","legs":"X"},"action":"harvest","summary":"good-harvest","bonus":0.06000000000000093},{"rt":640.7999999970198,"stimulus":"\n                    <p><b>Action: <em>harvest</em></b></p>\n                    <p>This is the bee that you just saw.</p>\n                    <img src=\"bees-with-color/bee-A2SF.svg\" width=\"200\">\n                    <p><span class=\"greenText\"><b>Successful harvest!</b></span><br>Your pay has increased by $0.02. Your bonus pay is now $0.36.</p>\n            ","response":0,"trial_type":"html-button-response","trial_index":92,"time_elapsed":431775,"internal_node_id":"0.0-4.0-1.40","subject_id":"60ef4642202c8520a37e19b5","study_id":"60edd13110225f80f9f3709b","session_id":"6196c7085e0e464228a06159","condition":"contingent","relevant_dimensions":["antennae","wings"],"bee_group":{"antennae":"B","wings":"2","pattern":"X","legs":"X"},"bonus":0.06000000000000093},{"rt":2123.8999999910593,"stimulus":"bees-with-color/bee-B2SF.svg","response":1,"trial_type":"image-button-response","trial_index":93,"time_elapsed":433899,"internal_node_id":"0.0-4.0-0.41","subject_id":"60ef4642202c8520a37e19b5","study_id":"60edd13110225f80f9f3709b","session_id":"6196c7085e0e464228a06159","condition":"contingent","relevant_dimensions":["antennae","wings"],"bee_group":{"antennae":"B","wings":"2","pattern":"X","legs":"X"},"action":"avoid","summary":"good-avoid","bonus":0.06000000000000093},{"rt":639.3000000119209,"stimulus":"\n                    <p><b>Action: <em>avoid</em></b></p>\n                    <p>This is the bee that you just saw.</p>\n                    <img src=\"bees-with-color/bee-B2SF.svg\" width=\"200\">\n                    <p><br>Your bonus pay is unchanged, and remains at $0.36.</p>\n            ","response":0,"trial_type":"html-button-response","trial_index":94,"time_elapsed":434539,"internal_node_id":"0.0-4.0-1.41","subject_id":"60ef4642202c8520a37e19b5","study_id":"60edd13110225f80f9f3709b","session_id":"6196c7085e0e464228a06159","condition":"contingent","relevant_dimensions":["antennae","wings"],"bee_group":{"antennae":"B","wings":"2","pattern":"X","legs":"X"},"bonus":0.06000000000000093},{"rt":1640.7999999970198,"stimulus":"bees-with-color/bee-A1SF.svg","response":0,"trial_type":"image-button-response","trial_index":95,"time_elapsed":436181,"internal_node_id":"0.0-4.0-0.42","subject_id":"60ef4642202c8520a37e19b5","study_id":"60edd13110225f80f9f3709b","session_id":"6196c7085e0e464228a06159","condition":"contingent","relevant_dimensions":["antennae","wings"],"bee_group":{"antennae":"B","wings":"2","pattern":"X","legs":"X"},"action":"harvest","summary":"good-harvest","bonus":0.06000000000000093},{"rt":436.90000000596046,"stimulus":"\n                    <p><b>Action: <em>harvest</em></b></p>\n                    <p>This is the bee that you just saw.</p>\n                    <img src=\"bees-with-color/bee-A1SF.svg\" width=\"200\">\n                    <p><span class=\"greenText\"><b>Successful harvest!</b></span><br>Your pay has increased by $0.02. Your bonus pay is now $0.38.</p>\n            ","response":0,"trial_type":"html-button-response","trial_index":96,"time_elapsed":436619,"internal_node_id":"0.0-4.0-1.42","subject_id":"60ef4642202c8520a37e19b5","study_id":"60edd13110225f80f9f3709b","session_id":"6196c7085e0e464228a06159","condition":"contingent","relevant_dimensions":["antennae","wings"],"bee_group":{"antennae":"B","wings":"2","pattern":"X","legs":"X"},"bonus":0.06000000000000093},{"rt":1305.6000000089407,"stimulus":"bees-with-color/bee-B2SM.svg","response":0,"trial_type":"image-button-response","trial_index":97,"time_elapsed":437925,"internal_node_id":"0.0-4.0-0.43","subject_id":"60ef4642202c8520a37e19b5","study_id":"60edd13110225f80f9f3709b","session_id":"6196c7085e0e464228a06159","condition":"contingent","relevant_dimensions":["antennae","wings"],"bee_group":{"antennae":"B","wings":"2","pattern":"X","legs":"X"},"action":"harvest","summary":"bad-harvest","bonus":0.06000000000000093},{"rt":751.6999999880791,"stimulus":"\n                    <p><b>Action: <em>harvest</em></b></p>\n                    <p>This is the bee that you just saw.</p>\n                    <img src=\"bees-with-color/bee-B2SM.svg\" width=\"200\">\n                    <p><span class=\"redText\">Bad choice, the bee was angry.</span><br><b>You have been stung!</b><br>Your pay has been decreased by $0.10. Your bonus pay is now $0.28.</p>\n            ","response":0,"trial_type":"html-button-response","trial_index":98,"time_elapsed":438678,"internal_node_id":"0.0-4.0-1.43","subject_id":"60ef4642202c8520a37e19b5","study_id":"60edd13110225f80f9f3709b","session_id":"6196c7085e0e464228a06159","condition":"contingent","relevant_dimensions":["antennae","wings"],"bee_group":{"antennae":"B","wings":"2","pattern":"X","legs":"X"},"bonus":0.06000000000000093},{"rt":1355.5,"stimulus":"bees-with-color/bee-B1SM.svg","response":0,"trial_type":"image-button-response","trial_index":99,"time_elapsed":440034,"internal_node_id":"0.0-4.0-0.44","subject_id":"60ef4642202c8520a37e19b5","study_id":"60edd13110225f80f9f3709b","session_id":"6196c7085e0e464228a06159","condition":"contingent","relevant_dimensions":["antennae","wings"],"bee_group":{"antennae":"B","wings":"2","pattern":"X","legs":"X"},"action":"harvest","summary":"good-harvest","bonus":0.06000000000000093},{"rt":621.1000000089407,"stimulus":"\n                    <p><b>Action: <em>harvest</em></b></p>\n                    <p>This is the bee that you just saw.</p>\n                    <img src=\"bees-with-color/bee-B1SM.svg\" width=\"200\">\n                    <p><span class=\"greenText\"><b>Successful harvest!</b></span><br>Your pay has increased by $0.02. Your bonus pay is now $0.30.</p>\n            ","response":0,"trial_type":"html-button-response","trial_index":100,"time_elapsed":440656,"internal_node_id":"0.0-4.0-1.44","subject_id":"60ef4642202c8520a37e19b5","study_id":"60edd13110225f80f9f3709b","session_id":"6196c7085e0e464228a06159","condition":"contingent","relevant_dimensions":["antennae","wings"],"bee_group":{"antennae":"B","wings":"2","pattern":"X","legs":"X"},"bonus":0.06000000000000093},{"rt":467.20000000298023,"stimulus":"bees-with-color/bee-B1DF.svg","response":0,"trial_type":"image-button-response","trial_index":101,"time_elapsed":441123,"internal_node_id":"0.0-4.0-0.45","subject_id":"60ef4642202c8520a37e19b5","study_id":"60edd13110225f80f9f3709b","session_id":"6196c7085e0e464228a06159","condition":"contingent","relevant_dimensions":["antennae","wings"],"bee_group":{"antennae":"B","wings":"2","pattern":"X","legs":"X"},"action":"harvest","summary":"good-harvest","bonus":0.06000000000000093},{"rt":689.7999999970198,"stimulus":"\n                    <p><b>Action: <em>harvest</em></b></p>\n                    <p>This is the bee that you just saw.</p>\n                    <img src=\"bees-with-color/bee-B1DF.svg\" width=\"200\">\n                    <p><span class=\"greenText\"><b>Successful harvest!</b></span><br>Your pay has increased by $0.02. Your bonus pay is now $0.32.</p>\n            ","response":0,"trial_type":"html-button-response","trial_index":102,"time_elapsed":441814,"internal_node_id":"0.0-4.0-1.45","subject_id":"60ef4642202c8520a37e19b5","study_id":"60edd13110225f80f9f3709b","session_id":"6196c7085e0e464228a06159","condition":"contingent","relevant_dimensions":["antennae","wings"],"bee_group":{"antennae":"B","wings":"2","pattern":"X","legs":"X"},"bonus":0.06000000000000093},{"rt":8455.79999999702,"stimulus":"bees-with-color/bee-A1DM.svg","response":0,"trial_type":"image-button-response","trial_index":103,"time_elapsed":450270,"internal_node_id":"0.0-4.0-0.46","subject_id":"60ef4642202c8520a37e19b5","study_id":"60edd13110225f80f9f3709b","session_id":"6196c7085e0e464228a06159","condition":"contingent","relevant_dimensions":["antennae","wings"],"bee_group":{"antennae":"B","wings":"2","pattern":"X","legs":"X"},"action":"harvest","summary":"good-harvest","bonus":0.06000000000000093},{"rt":638.8000000119209,"stimulus":"\n                    <p><b>Action: <em>harvest</em></b></p>\n                    <p>This is the bee that you just saw.</p>\n                    <img src=\"bees-with-color/bee-A1DM.svg\" width=\"200\">\n                    <p><span class=\"greenText\"><b>Successful harvest!</b></span><br>Your pay has increased by $0.02. Your bonus pay is now $0.34.</p>\n            ","response":0,"trial_type":"html-button-response","trial_index":104,"time_elapsed":450910,"internal_node_id":"0.0-4.0-1.46","subject_id":"60ef4642202c8520a37e19b5","study_id":"60edd13110225f80f9f3709b","session_id":"6196c7085e0e464228a06159","condition":"contingent","relevant_dimensions":["antennae","wings"],"bee_group":{"antennae":"B","wings":"2","pattern":"X","legs":"X"},"bonus":0.06000000000000093},{"rt":1791.3999999910593,"stimulus":"bees-with-color/bee-A1SM.svg","response":0,"trial_type":"image-button-response","trial_index":105,"time_elapsed":452702,"internal_node_id":"0.0-4.0-0.47","subject_id":"60ef4642202c8520a37e19b5","study_id":"60edd13110225f80f9f3709b","session_id":"6196c7085e0e464228a06159","condition":"contingent","relevant_dimensions":["antennae","wings"],"bee_group":{"antennae":"B","wings":"2","pattern":"X","legs":"X"},"action":"harvest","summary":"good-harvest","bonus":0.06000000000000093},{"rt":599.2999999970198,"stimulus":"\n                    <p><b>Action: <em>harvest</em></b></p>\n                    <p>This is the bee that you just saw.</p>\n                    <img src=\"bees-with-color/bee-A1SM.svg\" width=\"200\">\n                    <p><span class=\"greenText\"><b>Successful harvest!</b></span><br>Your pay has increased by $0.02. Your bonus pay is now $0.36.</p>\n            ","response":0,"trial_type":"html-button-response","trial_index":106,"time_elapsed":453302,"internal_node_id":"0.0-4.0-1.47","subject_id":"60ef4642202c8520a37e19b5","study_id":"60edd13110225f80f9f3709b","session_id":"6196c7085e0e464228a06159","condition":"contingent","relevant_dimensions":["antennae","wings"],"bee_group":{"antennae":"B","wings":"2","pattern":"X","legs":"X"},"bonus":0.06000000000000093},{"rt":929.7999999970198,"stimulus":"bees-with-color/bee-A2DF.svg","response":1,"trial_type":"image-button-response","trial_index":107,"time_elapsed":454233,"internal_node_id":"0.0-4.0-0.48","subject_id":"60ef4642202c8520a37e19b5","study_id":"60edd13110225f80f9f3709b","session_id":"6196c7085e0e464228a06159","condition":"contingent","relevant_dimensions":["antennae","wings"],"bee_group":{"antennae":"B","wings":"2","pattern":"X","legs":"X"},"action":"avoid","summary":"bad-avoid","bonus":0.06000000000000093},{"rt":927.2999999970198,"stimulus":"\n                    <p><b>Action: <em>avoid</em></b></p>\n                    <p>This is the bee that you just saw.</p>\n                    <img src=\"bees-with-color/bee-A2DF.svg\" width=\"200\">\n                    <p><br>Your bonus pay is unchanged, and remains at $0.36.</p>\n            ","response":0,"trial_type":"html-button-response","trial_index":108,"time_elapsed":455161,"internal_node_id":"0.0-4.0-1.48","subject_id":"60ef4642202c8520a37e19b5","study_id":"60edd13110225f80f9f3709b","session_id":"6196c7085e0e464228a06159","condition":"contingent","relevant_dimensions":["antennae","wings"],"bee_group":{"antennae":"B","wings":"2","pattern":"X","legs":"X"},"bonus":0.06000000000000093},{"rt":1490.8999999910593,"stimulus":"bees-with-color/bee-A1DF.svg","response":1,"trial_type":"image-button-response","trial_index":109,"time_elapsed":456652,"internal_node_id":"0.0-4.0-0.49","subject_id":"60ef4642202c8520a37e19b5","study_id":"60edd13110225f80f9f3709b","session_id":"6196c7085e0e464228a06159","condition":"contingent","relevant_dimensions":["antennae","wings"],"bee_group":{"antennae":"B","wings":"2","pattern":"X","legs":"X"},"action":"avoid","summary":"bad-avoid","bonus":0.06000000000000093},{"rt":481.20000000298023,"stimulus":"\n                    <p><b>Action: <em>avoid</em></b></p>\n                    <p>This is the bee that you just saw.</p>\n                    <img src=\"bees-with-color/bee-A1DF.svg\" width=\"200\">\n                    <p><br>Your bonus pay is unchanged, and remains at $0.36.</p>\n            ","response":0,"trial_type":"html-button-response","trial_index":110,"time_elapsed":457134,"internal_node_id":"0.0-4.0-1.49","subject_id":"60ef4642202c8520a37e19b5","study_id":"60edd13110225f80f9f3709b","session_id":"6196c7085e0e464228a06159","condition":"contingent","relevant_dimensions":["antennae","wings"],"bee_group":{"antennae":"B","wings":"2","pattern":"X","legs":"X"},"bonus":0.06000000000000093},{"rt":1989.5999999940395,"stimulus":"bees-with-color/bee-B1SM.svg","response":0,"trial_type":"image-button-response","trial_index":111,"time_elapsed":459124,"internal_node_id":"0.0-4.0-0.50","subject_id":"60ef4642202c8520a37e19b5","study_id":"60edd13110225f80f9f3709b","session_id":"6196c7085e0e464228a06159","condition":"contingent","relevant_dimensions":["antennae","wings"],"bee_group":{"antennae":"B","wings":"2","pattern":"X","legs":"X"},"action":"harvest","summary":"good-harvest","bonus":0.06000000000000093},{"rt":591.3999999910593,"stimulus":"\n                    <p><b>Action: <em>harvest</em></b></p>\n                    <p>This is the bee that you just saw.</p>\n                    <img src=\"bees-with-color/bee-B1SM.svg\" width=\"200\">\n                    <p><span class=\"greenText\"><b>Successful harvest!</b></span><br>Your pay has increased by $0.02. Your bonus pay is now $0.38.</p>\n            ","response":0,"trial_type":"html-button-response","trial_index":112,"time_elapsed":459717,"internal_node_id":"0.0-4.0-1.50","subject_id":"60ef4642202c8520a37e19b5","study_id":"60edd13110225f80f9f3709b","session_id":"6196c7085e0e464228a06159","condition":"contingent","relevant_dimensions":["antennae","wings"],"bee_group":{"antennae":"B","wings":"2","pattern":"X","legs":"X"},"bonus":0.06000000000000093},{"rt":2555.7999999970198,"stimulus":"bees-with-color/bee-B2SF.svg","response":1,"trial_type":"image-button-response","trial_index":113,"time_elapsed":462273,"internal_node_id":"0.0-4.0-0.51","subject_id":"60ef4642202c8520a37e19b5","study_id":"60edd13110225f80f9f3709b","session_id":"6196c7085e0e464228a06159","condition":"contingent","relevant_dimensions":["antennae","wings"],"bee_group":{"antennae":"B","wings":"2","pattern":"X","legs":"X"},"action":"avoid","summary":"good-avoid","bonus":0.06000000000000093},{"rt":909,"stimulus":"\n                    <p><b>Action: <em>avoid</em></b></p>\n                    <p>This is the bee that you just saw.</p>\n                    <img src=\"bees-with-color/bee-B2SF.svg\" width=\"200\">\n                    <p><br>Your bonus pay is unchanged, and remains at $0.38.</p>\n            ","response":0,"trial_type":"html-button-response","trial_index":114,"time_elapsed":463183,"internal_node_id":"0.0-4.0-1.51","subject_id":"60ef4642202c8520a37e19b5","study_id":"60edd13110225f80f9f3709b","session_id":"6196c7085e0e464228a06159","condition":"contingent","relevant_dimensions":["antennae","wings"],"bee_group":{"antennae":"B","wings":"2","pattern":"X","legs":"X"},"bonus":0.06000000000000093},{"rt":3143.0999999940395,"stimulus":"bees-with-color/bee-A1SM.svg","response":0,"trial_type":"image-button-response","trial_index":115,"time_elapsed":466327,"internal_node_id":"0.0-4.0-0.52","subject_id":"60ef4642202c8520a37e19b5","study_id":"60edd13110225f80f9f3709b","session_id":"6196c7085e0e464228a06159","condition":"contingent","relevant_dimensions":["antennae","wings"],"bee_group":{"antennae":"B","wings":"2","pattern":"X","legs":"X"},"action":"harvest","summary":"good-harvest","bonus":0.06000000000000093},{"rt":723.7000000029802,"stimulus":"\n                    <p><b>Action: <em>harvest</em></b></p>\n                    <p>This is the bee that you just saw.</p>\n                    <img src=\"bees-with-color/bee-A1SM.svg\" width=\"200\">\n                    <p><span class=\"greenText\"><b>Successful harvest!</b></span><br>Your pay has increased by $0.02. Your bonus pay is now $0.40.</p>\n            ","response":0,"trial_type":"html-button-response","trial_index":116,"time_elapsed":467051,"internal_node_id":"0.0-4.0-1.52","subject_id":"60ef4642202c8520a37e19b5","study_id":"60edd13110225f80f9f3709b","session_id":"6196c7085e0e464228a06159","condition":"contingent","relevant_dimensions":["antennae","wings"],"bee_group":{"antennae":"B","wings":"2","pattern":"X","legs":"X"},"bonus":0.06000000000000093},{"rt":1921.2000000029802,"stimulus":"bees-with-color/bee-B2SM.svg","response":0,"trial_type":"image-button-response","trial_index":117,"time_elapsed":468973,"internal_node_id":"0.0-4.0-0.53","subject_id":"60ef4642202c8520a37e19b5","study_id":"60edd13110225f80f9f3709b","session_id":"6196c7085e0e464228a06159","condition":"contingent","relevant_dimensions":["antennae","wings"],"bee_group":{"antennae":"B","wings":"2","pattern":"X","legs":"X"},"action":"harvest","summary":"bad-harvest","bonus":0.06000000000000093},{"rt":1179.699999988079,"stimulus":"\n                    <p><b>Action: <em>harvest</em></b></p>\n                    <p>This is the bee that you just saw.</p>\n                    <img src=\"bees-with-color/bee-B2SM.svg\" width=\"200\">\n                    <p><span class=\"redText\">Bad choice, the bee was angry.</span><br><b>You have been stung!</b><br>Your pay has been decreased by $0.10. Your bonus pay is now $0.30.</p>\n            ","response":0,"trial_type":"html-button-response","trial_index":118,"time_elapsed":470154,"internal_node_id":"0.0-4.0-1.53","subject_id":"60ef4642202c8520a37e19b5","study_id":"60edd13110225f80f9f3709b","session_id":"6196c7085e0e464228a06159","condition":"contingent","relevant_dimensions":["antennae","wings"],"bee_group":{"antennae":"B","wings":"2","pattern":"X","legs":"X"},"bonus":0.06000000000000093},{"rt":1334.7999999970198,"stimulus":"bees-with-color/bee-A1SF.svg","response":0,"trial_type":"image-button-response","trial_index":119,"time_elapsed":471489,"internal_node_id":"0.0-4.0-0.54","subject_id":"60ef4642202c8520a37e19b5","study_id":"60edd13110225f80f9f3709b","session_id":"6196c7085e0e464228a06159","condition":"contingent","relevant_dimensions":["antennae","wings"],"bee_group":{"antennae":"B","wings":"2","pattern":"X","legs":"X"},"action":"harvest","summary":"good-harvest","bonus":0.06000000000000093},{"rt":613.9000000059605,"stimulus":"\n                    <p><b>Action: <em>harvest</em></b></p>\n                    <p>This is the bee that you just saw.</p>\n                    <img src=\"bees-with-color/bee-A1SF.svg\" width=\"200\">\n                    <p><span class=\"greenText\"><b>Successful harvest!</b></span><br>Your pay has increased by $0.02. Your bonus pay is now $0.32.</p>\n            ","response":0,"trial_type":"html-button-response","trial_index":120,"time_elapsed":472104,"internal_node_id":"0.0-4.0-1.54","subject_id":"60ef4642202c8520a37e19b5","study_id":"60edd13110225f80f9f3709b","session_id":"6196c7085e0e464228a06159","condition":"contingent","relevant_dimensions":["antennae","wings"],"bee_group":{"antennae":"B","wings":"2","pattern":"X","legs":"X"},"bonus":0.06000000000000093},{"rt":446.79999999701977,"stimulus":"bees-with-color/bee-A1DM.svg","response":0,"trial_type":"image-button-response","trial_index":121,"time_elapsed":472551,"internal_node_id":"0.0-4.0-0.55","subject_id":"60ef4642202c8520a37e19b5","study_id":"60edd13110225f80f9f3709b","session_id":"6196c7085e0e464228a06159","condition":"contingent","relevant_dimensions":["antennae","wings"],"bee_group":{"antennae":"B","wings":"2","pattern":"X","legs":"X"},"action":"harvest","summary":"good-harvest","bonus":0.06000000000000093},{"rt":467.20000000298023,"stimulus":"\n                    <p><b>Action: <em>harvest</em></b></p>\n                    <p>This is the bee that you just saw.</p>\n                    <img src=\"bees-with-color/bee-A1DM.svg\" width=\"200\">\n                    <p><span class=\"greenText\"><b>Successful harvest!</b></span><br>Your pay has increased by $0.02. Your bonus pay is now $0.34.</p>\n            ","response":0,"trial_type":"html-button-response","trial_index":122,"time_elapsed":473019,"internal_node_id":"0.0-4.0-1.55","subject_id":"60ef4642202c8520a37e19b5","study_id":"60edd13110225f80f9f3709b","session_id":"6196c7085e0e464228a06159","condition":"contingent","relevant_dimensions":["antennae","wings"],"bee_group":{"antennae":"B","wings":"2","pattern":"X","legs":"X"},"bonus":0.06000000000000093},{"rt":467.40000000596046,"stimulus":"bees-with-color/bee-A2DM.svg","response":0,"trial_type":"image-button-response","trial_index":123,"time_elapsed":473487,"internal_node_id":"0.0-4.0-0.56","subject_id":"60ef4642202c8520a37e19b5","study_id":"60edd13110225f80f9f3709b","session_id":"6196c7085e0e464228a06159","condition":"contingent","relevant_dimensions":["antennae","wings"],"bee_group":{"antennae":"B","wings":"2","pattern":"X","legs":"X"},"action":"harvest","summary":"good-harvest","bonus":0.06000000000000093},{"rt":1217,"stimulus":"\n                    <p><b>Action: <em>harvest</em></b></p>\n                    <p>This is the bee that you just saw.</p>\n                    <img src=\"bees-with-color/bee-A2DM.svg\" width=\"200\">\n                    <p><span class=\"greenText\"><b>Successful harvest!</b></span><br>Your pay has increased by $0.02. Your bonus pay is now $0.36.</p>\n            ","response":0,"trial_type":"html-button-response","trial_index":124,"time_elapsed":474705,"internal_node_id":"0.0-4.0-1.56","subject_id":"60ef4642202c8520a37e19b5","study_id":"60edd13110225f80f9f3709b","session_id":"6196c7085e0e464228a06159","condition":"contingent","relevant_dimensions":["antennae","wings"],"bee_group":{"antennae":"B","wings":"2","pattern":"X","legs":"X"},"bonus":0.06000000000000093},{"rt":1395.2999999970198,"stimulus":"bees-with-color/bee-B1DF.svg","response":1,"trial_type":"image-button-response","trial_index":125,"time_elapsed":476102,"internal_node_id":"0.0-4.0-0.57","subject_id":"60ef4642202c8520a37e19b5","study_id":"60edd13110225f80f9f3709b","session_id":"6196c7085e0e464228a06159","condition":"contingent","relevant_dimensions":["antennae","wings"],"bee_group":{"antennae":"B","wings":"2","pattern":"X","legs":"X"},"action":"avoid","summary":"bad-avoid","bonus":0.06000000000000093},{"rt":739,"stimulus":"\n                    <p><b>Action: <em>avoid</em></b></p>\n                    <p>This is the bee that you just saw.</p>\n                    <img src=\"bees-with-color/bee-B1DF.svg\" width=\"200\">\n                    <p><br>Your bonus pay is unchanged, and remains at $0.36.</p>\n            ","response":0,"trial_type":"html-button-response","trial_index":126,"time_elapsed":476841,"internal_node_id":"0.0-4.0-1.57","subject_id":"60ef4642202c8520a37e19b5","study_id":"60edd13110225f80f9f3709b","session_id":"6196c7085e0e464228a06159","condition":"contingent","relevant_dimensions":["antennae","wings"],"bee_group":{"antennae":"B","wings":"2","pattern":"X","legs":"X"},"bonus":0.06000000000000093},{"rt":1417.7000000029802,"stimulus":"bees-with-color/bee-B1SF.svg","response":0,"trial_type":"image-button-response","trial_index":127,"time_elapsed":478260,"internal_node_id":"0.0-4.0-0.58","subject_id":"60ef4642202c8520a37e19b5","study_id":"60edd13110225f80f9f3709b","session_id":"6196c7085e0e464228a06159","condition":"contingent","relevant_dimensions":["antennae","wings"],"bee_group":{"antennae":"B","wings":"2","pattern":"X","legs":"X"},"action":"harvest","summary":"good-harvest","bonus":0.06000000000000093},{"rt":580.8999999910593,"stimulus":"\n                    <p><b>Action: <em>harvest</em></b></p>\n                    <p>This is the bee that you just saw.</p>\n                    <img src=\"bees-with-color/bee-B1SF.svg\" width=\"200\">\n                    <p><span class=\"greenText\"><b>Successful harvest!</b></span><br>Your pay has increased by $0.02. Your bonus pay is now $0.38.</p>\n            ","response":0,"trial_type":"html-button-response","trial_index":128,"time_elapsed":478841,"internal_node_id":"0.0-4.0-1.58","subject_id":"60ef4642202c8520a37e19b5","study_id":"60edd13110225f80f9f3709b","session_id":"6196c7085e0e464228a06159","condition":"contingent","relevant_dimensions":["antennae","wings"],"bee_group":{"antennae":"B","wings":"2","pattern":"X","legs":"X"},"bonus":0.06000000000000093},{"rt":1153.5999999940395,"stimulus":"bees-with-color/bee-A2SM.svg","response":0,"trial_type":"image-button-response","trial_index":129,"time_elapsed":479996,"internal_node_id":"0.0-4.0-0.59","subject_id":"60ef4642202c8520a37e19b5","study_id":"60edd13110225f80f9f3709b","session_id":"6196c7085e0e464228a06159","condition":"contingent","relevant_dimensions":["antennae","wings"],"bee_group":{"antennae":"B","wings":"2","pattern":"X","legs":"X"},"action":"harvest","summary":"good-harvest","bonus":0.06000000000000093},{"rt":533.7000000029802,"stimulus":"\n                    <p><b>Action: <em>harvest</em></b></p>\n                    <p>This is the bee that you just saw.</p>\n                    <img src=\"bees-with-color/bee-A2SM.svg\" width=\"200\">\n                    <p><span class=\"greenText\"><b>Successful harvest!</b></span><br>Your pay has increased by $0.02. Your bonus pay is now $0.40.</p>\n            ","response":0,"trial_type":"html-button-response","trial_index":130,"time_elapsed":480530,"internal_node_id":"0.0-4.0-1.59","subject_id":"60ef4642202c8520a37e19b5","study_id":"60edd13110225f80f9f3709b","session_id":"6196c7085e0e464228a06159","condition":"contingent","relevant_dimensions":["antennae","wings"],"bee_group":{"antennae":"B","wings":"2","pattern":"X","legs":"X"},"bonus":0.06000000000000093},{"rt":2217,"stimulus":"bees-with-color/bee-B2DF.svg","response":1,"trial_type":"image-button-response","trial_index":131,"time_elapsed":482748,"internal_node_id":"0.0-4.0-0.60","subject_id":"60ef4642202c8520a37e19b5","study_id":"60edd13110225f80f9f3709b","session_id":"6196c7085e0e464228a06159","condition":"contingent","relevant_dimensions":["antennae","wings"],"bee_group":{"antennae":"B","wings":"2","pattern":"X","legs":"X"},"action":"avoid","summary":"good-avoid","bonus":0.06000000000000093},{"rt":647.4000000059605,"stimulus":"\n                    <p><b>Action: <em>avoid</em></b></p>\n                    <p>This is the bee that you just saw.</p>\n                    <img src=\"bees-with-color/bee-B2DF.svg\" width=\"200\">\n                    <p><br>Your bonus pay is unchanged, and remains at $0.40.</p>\n            ","response":0,"trial_type":"html-button-response","trial_index":132,"time_elapsed":483396,"internal_node_id":"0.0-4.0-1.60","subject_id":"60ef4642202c8520a37e19b5","study_id":"60edd13110225f80f9f3709b","session_id":"6196c7085e0e464228a06159","condition":"contingent","relevant_dimensions":["antennae","wings"],"bee_group":{"antennae":"B","wings":"2","pattern":"X","legs":"X"},"bonus":0.06000000000000093},{"rt":1189.199999988079,"stimulus":"bees-with-color/bee-A2SF.svg","response":0,"trial_type":"image-button-response","trial_index":133,"time_elapsed":484586,"internal_node_id":"0.0-4.0-0.61","subject_id":"60ef4642202c8520a37e19b5","study_id":"60edd13110225f80f9f3709b","session_id":"6196c7085e0e464228a06159","condition":"contingent","relevant_dimensions":["antennae","wings"],"bee_group":{"antennae":"B","wings":"2","pattern":"X","legs":"X"},"action":"harvest","summary":"good-harvest","bonus":0.06000000000000093},{"rt":534.6999999880791,"stimulus":"\n                    <p><b>Action: <em>harvest</em></b></p>\n                    <p>This is the bee that you just saw.</p>\n                    <img src=\"bees-with-color/bee-A2SF.svg\" width=\"200\">\n                    <p><span class=\"greenText\"><b>Successful harvest!</b></span><br>Your pay has increased by $0.02. Your bonus pay is now $0.42.</p>\n            ","response":0,"trial_type":"html-button-response","trial_index":134,"time_elapsed":485122,"internal_node_id":"0.0-4.0-1.61","subject_id":"60ef4642202c8520a37e19b5","study_id":"60edd13110225f80f9f3709b","session_id":"6196c7085e0e464228a06159","condition":"contingent","relevant_dimensions":["antennae","wings"],"bee_group":{"antennae":"B","wings":"2","pattern":"X","legs":"X"},"bonus":0.06000000000000093},{"rt":4195.899999991059,"stimulus":"bees-with-color/bee-B2DM.svg","response":0,"trial_type":"image-button-response","trial_index":135,"time_elapsed":489319,"internal_node_id":"0.0-4.0-0.62","subject_id":"60ef4642202c8520a37e19b5","study_id":"60edd13110225f80f9f3709b","session_id":"6196c7085e0e464228a06159","condition":"contingent","relevant_dimensions":["antennae","wings"],"bee_group":{"antennae":"B","wings":"2","pattern":"X","legs":"X"},"action":"harvest","summary":"bad-harvest","bonus":0.06000000000000093},{"rt":1294.7999999970198,"stimulus":"\n                    <p><b>Action: <em>harvest</em></b></p>\n                    <p>This is the bee that you just saw.</p>\n                    <img src=\"bees-with-color/bee-B2DM.svg\" width=\"200\">\n                    <p><span class=\"redText\">Bad choice, the bee was angry.</span><br><b>You have been stung!</b><br>Your pay has been decreased by $0.10. Your bonus pay is now $0.32.</p>\n            ","response":0,"trial_type":"html-button-response","trial_index":136,"time_elapsed":490615,"internal_node_id":"0.0-4.0-1.62","subject_id":"60ef4642202c8520a37e19b5","study_id":"60edd13110225f80f9f3709b","session_id":"6196c7085e0e464228a06159","condition":"contingent","relevant_dimensions":["antennae","wings"],"bee_group":{"antennae":"B","wings":"2","pattern":"X","legs":"X"},"bonus":0.06000000000000093},{"rt":1660.9000000059605,"stimulus":"bees-with-color/bee-B1DM.svg","response":0,"trial_type":"image-button-response","trial_index":137,"time_elapsed":492277,"internal_node_id":"0.0-4.0-0.63","subject_id":"60ef4642202c8520a37e19b5","study_id":"60edd13110225f80f9f3709b","session_id":"6196c7085e0e464228a06159","condition":"contingent","relevant_dimensions":["antennae","wings"],"bee_group":{"antennae":"B","wings":"2","pattern":"X","legs":"X"},"action":"harvest","summary":"good-harvest","bonus":0.06000000000000093},{"rt":453.09999999403954,"stimulus":"\n                    <p><b>Action: <em>harvest</em></b></p>\n                    <p>This is the bee that you just saw.</p>\n                    <img src=\"bees-with-color/bee-B1DM.svg\" width=\"200\">\n                    <p><span class=\"greenText\"><b>Successful harvest!</b></span><br>Your pay has increased by $0.02. Your bonus pay is now $0.34.</p>\n            ","response":0,"trial_type":"html-button-response","trial_index":138,"time_elapsed":492731,"internal_node_id":"0.0-4.0-1.63","subject_id":"60ef4642202c8520a37e19b5","study_id":"60edd13110225f80f9f3709b","session_id":"6196c7085e0e464228a06159","condition":"contingent","relevant_dimensions":["antennae","wings"],"bee_group":{"antennae":"B","wings":"2","pattern":"X","legs":"X"},"bonus":0.06000000000000093},{"rt":7069.29999999702,"stimulus":"You have completed the first part of this experiment.<br><br>You will now begin a shorter second part, in which you will receive no feedback.<br>The same rules regarding bonus pay apply.<br><br>Press any key to begin.","response":" ","trial_type":"html-keyboard-response","trial_index":139,"time_elapsed":499801,"internal_node_id":"0.0-5.0","subject_id":"60ef4642202c8520a37e19b5","study_id":"60edd13110225f80f9f3709b","session_id":"6196c7085e0e464228a06159","condition":"contingent","relevant_dimensions":["antennae","wings"],"bee_group":{"antennae":"B","wings":"2","pattern":"X","legs":"X"},"bonus":0.06000000000000093},{"rt":2861.800000011921,"stimulus":"bees-with-color/bee-A2SM.svg","response":0,"trial_type":"image-button-response","trial_index":140,"time_elapsed":502667,"internal_node_id":"0.0-6.0-0.0","subject_id":"60ef4642202c8520a37e19b5","study_id":"60edd13110225f80f9f3709b","session_id":"6196c7085e0e464228a06159","condition":"contingent","relevant_dimensions":["antennae","wings"],"bee_group":{"antennae":"B","wings":"2","pattern":"X","legs":"X"},"bonus":0.06000000000000093},{"rt":1866.5999999940395,"stimulus":"bees-with-color/bee-B1DM.svg","response":1,"trial_type":"image-button-response","trial_index":141,"time_elapsed":504535,"internal_node_id":"0.0-6.0-0.1","subject_id":"60ef4642202c8520a37e19b5","study_id":"60edd13110225f80f9f3709b","session_id":"6196c7085e0e464228a06159","condition":"contingent","relevant_dimensions":["antennae","wings"],"bee_group":{"antennae":"B","wings":"2","pattern":"X","legs":"X"},"bonus":0.06000000000000093},{"rt":1299.0999999940395,"stimulus":"bees-with-color/bee-A1DM.svg","response":0,"trial_type":"image-button-response","trial_index":142,"time_elapsed":505836,"internal_node_id":"0.0-6.0-0.2","subject_id":"60ef4642202c8520a37e19b5","study_id":"60edd13110225f80f9f3709b","session_id":"6196c7085e0e464228a06159","condition":"contingent","relevant_dimensions":["antennae","wings"],"bee_group":{"antennae":"B","wings":"2","pattern":"X","legs":"X"},"bonus":0.06000000000000093},{"rt":1126.9000000059605,"stimulus":"bees-with-color/bee-B1DF.svg","response":1,"trial_type":"image-button-response","trial_index":143,"time_elapsed":506964,"internal_node_id":"0.0-6.0-0.3","subject_id":"60ef4642202c8520a37e19b5","study_id":"60edd13110225f80f9f3709b","session_id":"6196c7085e0e464228a06159","condition":"contingent","relevant_dimensions":["antennae","wings"],"bee_group":{"antennae":"B","wings":"2","pattern":"X","legs":"X"},"bonus":0.06000000000000093},{"rt":826.2000000029802,"stimulus":"bees-with-color/bee-A2SF.svg","response":0,"trial_type":"image-button-response","trial_index":144,"time_elapsed":507791,"internal_node_id":"0.0-6.0-0.4","subject_id":"60ef4642202c8520a37e19b5","study_id":"60edd13110225f80f9f3709b","session_id":"6196c7085e0e464228a06159","condition":"contingent","relevant_dimensions":["antennae","wings"],"bee_group":{"antennae":"B","wings":"2","pattern":"X","legs":"X"},"bonus":0.06000000000000093},{"rt":739.1000000089407,"stimulus":"bees-with-color/bee-B2SM.svg","response":0,"trial_type":"image-button-response","trial_index":145,"time_elapsed":508532,"internal_node_id":"0.0-6.0-0.5","subject_id":"60ef4642202c8520a37e19b5","study_id":"60edd13110225f80f9f3709b","session_id":"6196c7085e0e464228a06159","condition":"contingent","relevant_dimensions":["antennae","wings"],"bee_group":{"antennae":"B","wings":"2","pattern":"X","legs":"X"},"bonus":0.06000000000000093},{"rt":2972.5,"stimulus":"bees-with-color/bee-B1SF.svg","response":1,"trial_type":"image-button-response","trial_index":146,"time_elapsed":511505,"internal_node_id":"0.0-6.0-0.6","subject_id":"60ef4642202c8520a37e19b5","study_id":"60edd13110225f80f9f3709b","session_id":"6196c7085e0e464228a06159","condition":"contingent","relevant_dimensions":["antennae","wings"],"bee_group":{"antennae":"B","wings":"2","pattern":"X","legs":"X"},"bonus":0.06000000000000093},{"rt":3583,"stimulus":"bees-with-color/bee-B2DM.svg","response":0,"trial_type":"image-button-response","trial_index":147,"time_elapsed":515090,"internal_node_id":"0.0-6.0-0.7","subject_id":"60ef4642202c8520a37e19b5","study_id":"60edd13110225f80f9f3709b","session_id":"6196c7085e0e464228a06159","condition":"contingent","relevant_dimensions":["antennae","wings"],"bee_group":{"antennae":"B","wings":"2","pattern":"X","legs":"X"},"bonus":0.06000000000000093},{"rt":2811.5,"stimulus":"bees-with-color/bee-B2SF.svg","response":0,"trial_type":"image-button-response","trial_index":148,"time_elapsed":517903,"internal_node_id":"0.0-6.0-0.8","subject_id":"60ef4642202c8520a37e19b5","study_id":"60edd13110225f80f9f3709b","session_id":"6196c7085e0e464228a06159","condition":"contingent","relevant_dimensions":["antennae","wings"],"bee_group":{"antennae":"B","wings":"2","pattern":"X","legs":"X"},"bonus":0.06000000000000093},{"rt":1453.1000000089407,"stimulus":"bees-with-color/bee-A2DF.svg","response":0,"trial_type":"image-button-response","trial_index":149,"time_elapsed":519357,"internal_node_id":"0.0-6.0-0.9","subject_id":"60ef4642202c8520a37e19b5","study_id":"60edd13110225f80f9f3709b","session_id":"6196c7085e0e464228a06159","condition":"contingent","relevant_dimensions":["antennae","wings"],"bee_group":{"antennae":"B","wings":"2","pattern":"X","legs":"X"},"bonus":0.06000000000000093},{"rt":2248.4000000059605,"stimulus":"bees-with-color/bee-A1DF.svg","response":1,"trial_type":"image-button-response","trial_index":150,"time_elapsed":521606,"internal_node_id":"0.0-6.0-0.10","subject_id":"60ef4642202c8520a37e19b5","study_id":"60edd13110225f80f9f3709b","session_id":"6196c7085e0e464228a06159","condition":"contingent","relevant_dimensions":["antennae","wings"],"bee_group":{"antennae":"B","wings":"2","pattern":"X","legs":"X"},"bonus":0.06000000000000093},{"rt":2459.5,"stimulus":"bees-with-color/bee-A1SF.svg","response":0,"trial_type":"image-button-response","trial_index":151,"time_elapsed":524067,"internal_node_id":"0.0-6.0-0.11","subject_id":"60ef4642202c8520a37e19b5","study_id":"60edd13110225f80f9f3709b","session_id":"6196c7085e0e464228a06159","condition":"contingent","relevant_dimensions":["antennae","wings"],"bee_group":{"antennae":"B","wings":"2","pattern":"X","legs":"X"},"bonus":0.06000000000000093},{"rt":942.6000000089407,"stimulus":"bees-with-color/bee-A2DM.svg","response":0,"trial_type":"image-button-response","trial_index":152,"time_elapsed":525011,"internal_node_id":"0.0-6.0-0.12","subject_id":"60ef4642202c8520a37e19b5","study_id":"60edd13110225f80f9f3709b","session_id":"6196c7085e0e464228a06159","condition":"contingent","relevant_dimensions":["antennae","wings"],"bee_group":{"antennae":"B","wings":"2","pattern":"X","legs":"X"},"bonus":0.06000000000000093},{"rt":776.5,"stimulus":"bees-with-color/bee-B2DF.svg","response":1,"trial_type":"image-button-response","trial_index":153,"time_elapsed":525788,"internal_node_id":"0.0-6.0-0.13","subject_id":"60ef4642202c8520a37e19b5","study_id":"60edd13110225f80f9f3709b","session_id":"6196c7085e0e464228a06159","condition":"contingent","relevant_dimensions":["antennae","wings"],"bee_group":{"antennae":"B","wings":"2","pattern":"X","legs":"X"},"bonus":0.06000000000000093},{"rt":2523.1000000089407,"stimulus":"bees-with-color/bee-B1SM.svg","response":0,"trial_type":"image-button-response","trial_index":154,"time_elapsed":528313,"internal_node_id":"0.0-6.0-0.14","subject_id":"60ef4642202c8520a37e19b5","study_id":"60edd13110225f80f9f3709b","session_id":"6196c7085e0e464228a06159","condition":"contingent","relevant_dimensions":["antennae","wings"],"bee_group":{"antennae":"B","wings":"2","pattern":"X","legs":"X"},"bonus":0.06000000000000093},{"rt":783.2000000029802,"stimulus":"bees-with-color/bee-A1SM.svg","response":0,"trial_type":"image-button-response","trial_index":155,"time_elapsed":529097,"internal_node_id":"0.0-6.0-0.15","subject_id":"60ef4642202c8520a37e19b5","study_id":"60edd13110225f80f9f3709b","session_id":"6196c7085e0e464228a06159","condition":"contingent","relevant_dimensions":["antennae","wings"],"bee_group":{"antennae":"B","wings":"2","pattern":"X","legs":"X"},"bonus":0.06000000000000093},{"rt":1310.5999999940395,"stimulus":"bees-with-color/bee-B1DF.svg","response":1,"trial_type":"image-button-response","trial_index":156,"time_elapsed":530409,"internal_node_id":"0.0-6.0-0.16","subject_id":"60ef4642202c8520a37e19b5","study_id":"60edd13110225f80f9f3709b","session_id":"6196c7085e0e464228a06159","condition":"contingent","relevant_dimensions":["antennae","wings"],"bee_group":{"antennae":"B","wings":"2","pattern":"X","legs":"X"},"bonus":0.06000000000000093},{"rt":589.2000000029802,"stimulus":"bees-with-color/bee-B2DF.svg","response":1,"trial_type":"image-button-response","trial_index":157,"time_elapsed":530999,"internal_node_id":"0.0-6.0-0.17","subject_id":"60ef4642202c8520a37e19b5","study_id":"60edd13110225f80f9f3709b","session_id":"6196c7085e0e464228a06159","condition":"contingent","relevant_dimensions":["antennae","wings"],"bee_group":{