[{"success":true,"trial_type":"fullscreen","trial_index":0,"time_elapsed":7443,"internal_node_id":"0.0-0.0","subject_id":"61670b85f91be7f7618712b5","study_id":"6197b3f67c2b5cd3b6d9596a","session_id":"6197b5c6698a415f67ddc4cd","condition":"contingent","relevant_dimensions":["wings","pattern"],"bee_group":{"antennae":"X","wings":"2","pattern":"D","legs":"X"},"bonus":0.14},{"success":true,"timeout":false,"failed_images":[],"failed_audio":[],"failed_video":[],"trial_type":"preload","trial_index":1,"time_elapsed":7654,"internal_node_id":"0.0-1.0","subject_id":"61670b85f91be7f7618712b5","study_id":"6197b3f67c2b5cd3b6d9596a","session_id":"6197b5c6698a415f67ddc4cd","condition":"contingent","relevant_dimensions":["wings","pattern"],"bee_group":{"antennae":"X","wings":"2","pattern":"D","legs":"X"},"bonus":0.14},{"rt":9101.5,"stimulus":"Welcome! Press any key to begin.","response":" ","trial_type":"html-keyboard-response","trial_index":2,"time_elapsed":16757,"internal_node_id":"0.0-2.0","subject_id":"61670b85f91be7f7618712b5","study_id":"6197b3f67c2b5cd3b6d9596a","session_id":"6197b5c6698a415f67ddc4cd","condition":"contingent","relevant_dimensions":["wings","pattern"],"bee_group":{"antennae":"X","wings":"2","pattern":"D","legs":"X"},"bonus":0.14},{"view_history":[{"page_index":0,"viewing_time":10852.600000023842},{"page_index":1,"viewing_time":20737.5},{"page_index":2,"viewing_time":18336.699999928474},{"page_index":3,"viewing_time":24554.800000071526},{"page_index":4,"viewing_time":11725.399999976158},{"page_index":5,"viewing_time":14427.100000023842},{"page_index":6,"viewing_time":25622.5},{"page_index":7,"viewing_time":16181.099999904633},{"page_index":8,"viewing_time":8176.200000047684},{"page_index":9,"viewing_time":2693.399999976158},{"page_index":10,"viewing_time":1714.3000000715256},{"page_index":9,"viewing_time":5307.699999928474},{"page_index":10,"viewing_time":3919.8000000715256},{"page_index":11,"viewing_time":11260.899999976158},{"page_index":12,"viewing_time":15030.799999952316},{"page_index":13,"viewing_time":2003.8000000715256},{"page_index":14,"viewing_time":4437.399999976158}],"rt":196982.5,"trial_type":"instructions","trial_index":3,"time_elapsed":213740,"internal_node_id":"0.0-3.0-0.0","subject_id":"61670b85f91be7f7618712b5","study_id":"6197b3f67c2b5cd3b6d9596a","session_id":"6197b5c6698a415f67ddc4cd","condition":"contingent","relevant_dimensions":["wings","pattern"],"bee_group":{"antennae":"X","wings":"2","pattern":"D","legs":"X"},"bonus":0.14},{"rt":22907.799999952316,"response":{"Q0":["Two or six legs","Stripes or spots on body","Single or double wings","Antennae or no antennae"]},"question_order":[0],"trial_type":"survey-multi-select","trial_index":4,"time_elapsed":236737,"internal_node_id":"0.0-3.0-1.0","subject_id":"61670b85f91be7f7618712b5","study_id":"6197b3f67c2b5cd3b6d9596a","session_id":"6197b5c6698a415f67ddc4cd","condition":"contingent","relevant_dimensions":["wings","pattern"],"bee_group":{"antennae":"X","wings":"2","pattern":"D","legs":"X"},"correct":true,"bonus":0.14},{"rt":37922.299999952316,"response":{"Q1":"No.","Q2":"Based on the four features of the bee.","Q3":"You do not learn if it was friendly or dangerous, and do not alter your bonus."},"question_order":[0,1,2],"trial_type":"survey-multi-choice","trial_index":5,"time_elapsed":274662,"internal_node_id":"0.0-3.0-2.0","subject_id":"61670b85f91be7f7618712b5","study_id":"6197b3f67c2b5cd3b6d9596a","session_id":"6197b5c6698a415f67ddc4cd","condition":"contingent","relevant_dimensions":["wings","pattern"],"bee_group":{"antennae":"X","wings":"2","pattern":"D","legs":"X"},"correct":true,"bonus":0.14},{"rt":5065.5,"stimulus":"<p>Congrats, you got everything right<br>When you're ready, click the button below to continue to the experiment.</p>","response":0,"trial_type":"html-button-response","trial_index":6,"time_elapsed":279730,"internal_node_id":"0.0-3.0-3.0","subject_id":"61670b85f91be7f7618712b5","study_id":"6197b3f67c2b5cd3b6d9596a","session_id":"6197b5c6698a415f67ddc4cd","condition":"contingent","relevant_dimensions":["wings","pattern"],"bee_group":{"antennae":"X","wings":"2","pattern":"D","legs":"X"},"bonus":0.14},{"rt":7008.5,"stimulus":"bees-with-color/bee-B1DF.svg","response":0,"trial_type":"image-button-response","trial_index":7,"time_elapsed":286742,"internal_node_id":"0.0-4.0-0.0","subject_id":"61670b85f91be7f7618712b5","study_id":"6197b3f67c2b5cd3b6d9596a","session_id":"6197b5c6698a415f67ddc4cd","condition":"contingent","relevant_dimensions":["wings","pattern"],"bee_group":{"antennae":"X","wings":"2","pattern":"D","legs":"X"},"action":"harvest","summary":"good-harvest","bonus":0.14},{"rt":5817.399999976158,"stimulus":"\n                    <p><b>Action: <em>harvest</em></b></p>\n                    <p>This is the bee that you just saw.</p>\n                    <img src=\"bees-with-color/bee-B1DF.svg\" width=\"200\">\n                    <p><span class=\"greenText\"><b>Successful harvest!</b></span><br>Your pay has increased by $0.02. Your bonus pay is now $0.56.</p>\n            ","response":0,"trial_type":"html-button-response","trial_index":8,"time_elapsed":292582,"internal_node_id":"0.0-4.0-1.0","subject_id":"61670b85f91be7f7618712b5","study_id":"6197b3f67c2b5cd3b6d9596a","session_id":"6197b5c6698a415f67ddc4cd","condition":"contingent","relevant_dimensions":["wings","pattern"],"bee_group":{"antennae":"X","wings":"2","pattern":"D","legs":"X"},"bonus":0.14},{"rt":5688.100000023842,"stimulus":"bees-with-color/bee-B1DM.svg","response":0,"trial_type":"image-button-response","trial_index":9,"time_elapsed":298274,"internal_node_id":"0.0-4.0-0.1","subject_id":"61670b85f91be7f7618712b5","study_id":"6197b3f67c2b5cd3b6d9596a","session_id":"6197b5c6698a415f67ddc4cd","condition":"contingent","relevant_dimensions":["wings","pattern"],"bee_group":{"antennae":"X","wings":"2","pattern":"D","legs":"X"},"action":"harvest","summary":"good-harvest","bonus":0.14},{"rt":3814.100000023842,"stimulus":"\n                    <p><b>Action: <em>harvest</em></b></p>\n                    <p>This is the bee that you just saw.</p>\n                    <img src=\"bees-with-color/bee-B1DM.svg\" width=\"200\">\n                    <p><span class=\"greenText\"><b>Successful harvest!</b></span><br>Your pay has increased by $0.02. Your bonus pay is now $0.58.</p>\n            ","response":0,"trial_type":"html-button-response","trial_index":10,"time_elapsed":302091,"internal_node_id":"0.0-4.0-1.1","subject_id":"61670b85f91be7f7618712b5","study_id":"6197b3f67c2b5cd3b6d9596a","session_id":"6197b5c6698a415f67ddc4cd","condition":"contingent","relevant_dimensions":["wings","pattern"],"bee_group":{"antennae":"X","wings":"2","pattern":"D","legs":"X"},"bonus":0.14},{"rt":4507.899999976158,"stimulus":"bees-with-color/bee-A1DF.svg","response":0,"trial_type":"image-button-response","trial_index":11,"time_elapsed":306607,"internal_node_id":"0.0-4.0-0.2","subject_id":"61670b85f91be7f7618712b5","study_id":"6197b3f67c2b5cd3b6d9596a","session_id":"6197b5c6698a415f67ddc4cd","condition":"contingent","relevant_dimensions":["wings","pattern"],"bee_group":{"antennae":"X","wings":"2","pattern":"D","legs":"X"},"action":"harvest","summary":"good-harvest","bonus":0.14},{"rt":2885,"stimulus":"\n                    <p><b>Action: <em>harvest</em></b></p>\n                    <p>This is the bee that you just saw.</p>\n                    <img src=\"bees-with-color/bee-A1DF.svg\" width=\"200\">\n                    <p><span class=\"greenText\"><b>Successful harvest!</b></span><br>Your pay has increased by $0.02. Your bonus pay is now $0.60.</p>\n            ","response":0,"trial_type":"html-button-response","trial_index":12,"time_elapsed":309494,"internal_node_id":"0.0-4.0-1.2","subject_id":"61670b85f91be7f7618712b5","study_id":"6197b3f67c2b5cd3b6d9596a","session_id":"6197b5c6698a415f67ddc4cd","condition":"contingent","relevant_dimensions":["wings","pattern"],"bee_group":{"antennae":"X","wings":"2","pattern":"D","legs":"X"},"bonus":0.14},{"rt":3950.2999999523163,"stimulus":"bees-with-color/bee-B2SM.svg","response":1,"trial_type":"image-button-response","trial_index":13,"time_elapsed":313447,"internal_node_id":"0.0-4.0-0.3","subject_id":"61670b85f91be7f7618712b5","study_id":"6197b3f67c2b5cd3b6d9596a","session_id":"6197b5c6698a415f67ddc4cd","condition":"contingent","relevant_dimensions":["wings","pattern"],"bee_group":{"antennae":"X","wings":"2","pattern":"D","legs":"X"},"action":"avoid","summary":"bad-avoid","bonus":0.14},{"rt":4943,"stimulus":"\n                    <p><b>Action: <em>avoid</em></b></p>\n                    <p>This is the bee that you just saw.</p>\n                    <img src=\"bees-with-color/bee-B2SM.svg\" width=\"200\">\n                    <p><br>Your bonus pay is unchanged, and remains at $0.60.</p>\n            ","response":0,"trial_type":"html-button-response","trial_index":14,"time_elapsed":318392,"internal_node_id":"0.0-4.0-1.3","subject_id":"61670b85f91be7f7618712b5","study_id":"6197b3f67c2b5cd3b6d9596a","session_id":"6197b5c6698a415f67ddc4cd","condition":"contingent","relevant_dimensions":["wings","pattern"],"bee_group":{"antennae":"X","wings":"2","pattern":"D","legs":"X"},"bonus":0.14},{"rt":5231.399999976158,"stimulus":"bees-with-color/bee-A2DM.svg","response":0,"trial_type":"image-button-response","trial_index":15,"time_elapsed":323626,"internal_node_id":"0.0-4.0-0.4","subject_id":"61670b85f91be7f7618712b5","study_id":"6197b3f67c2b5cd3b6d9596a","session_id":"6197b5c6698a415f67ddc4cd","condition":"contingent","relevant_dimensions":["wings","pattern"],"bee_group":{"antennae":"X","wings":"2","pattern":"D","legs":"X"},"action":"harvest","summary":"bad-harvest","bonus":0.14},{"rt":8618,"stimulus":"\n                    <p><b>Action: <em>harvest</em></b></p>\n                    <p>This is the bee that you just saw.</p>\n                    <img src=\"bees-with-color/bee-A2DM.svg\" width=\"200\">\n                    <p><span class=\"redText\">Bad choice, the bee was angry.</span><br><b>You have been stung!</b><br>Your pay has been decreased by $0.10. Your bonus pay is now $0.50.</p>\n            ","response":0,"trial_type":"html-button-response","trial_index":16,"time_elapsed":332247,"internal_node_id":"0.0-4.0-1.4","subject_id":"61670b85f91be7f7618712b5","study_id":"6197b3f67c2b5cd3b6d9596a","session_id":"6197b5c6698a415f67ddc4cd","condition":"contingent","relevant_dimensions":["wings","pattern"],"bee_group":{"antennae":"X","wings":"2","pattern":"D","legs":"X"},"bonus":0.14},{"rt":2127.100000023842,"stimulus":"bees-with-color/bee-A1DM.svg","response":0,"trial_type":"image-button-response","trial_index":17,"time_elapsed":334376,"internal_node_id":"0.0-4.0-0.5","subject_id":"61670b85f91be7f7618712b5","study_id":"6197b3f67c2b5cd3b6d9596a","session_id":"6197b5c6698a415f67ddc4cd","condition":"contingent","relevant_dimensions":["wings","pattern"],"bee_group":{"antennae":"X","wings":"2","pattern":"D","legs":"X"},"action":"harvest","summary":"good-harvest","bonus":0.14},{"rt":2086.5,"stimulus":"\n                    <p><b>Action: <em>harvest</em></b></p>\n                    <p>This is the bee that you just saw.</p>\n                    <img src=\"bees-with-color/bee-A1DM.svg\" width=\"200\">\n                    <p><span class=\"greenText\"><b>Successful harvest!</b></span><br>Your pay has increased by $0.02. Your bonus pay is now $0.52.</p>\n            ","response":0,"trial_type":"html-button-response","trial_index":18,"time_elapsed":336464,"internal_node_id":"0.0-4.0-1.5","subject_id":"61670b85f91be7f7618712b5","study_id":"6197b3f67c2b5cd3b6d9596a","session_id":"6197b5c6698a415f67ddc4cd","condition":"contingent","relevant_dimensions":["wings","pattern"],"bee_group":{"antennae":"X","wings":"2","pattern":"D","legs":"X"},"bonus":0.14},{"rt":2357.399999976158,"stimulus":"bees-with-color/bee-B2DM.svg","response":1,"trial_type":"image-button-response","trial_index":19,"time_elapsed":338825,"internal_node_id":"0.0-4.0-0.6","subject_id":"61670b85f91be7f7618712b5","study_id":"6197b3f67c2b5cd3b6d9596a","session_id":"6197b5c6698a415f67ddc4cd","condition":"contingent","relevant_dimensions":["wings","pattern"],"bee_group":{"antennae":"X","wings":"2","pattern":"D","legs":"X"},"action":"avoid","summary":"good-avoid","bonus":0.14},{"rt":4187.5,"stimulus":"\n                    <p><b>Action: <em>avoid</em></b></p>\n                    <p>This is the bee that you just saw.</p>\n                    <img src=\"bees-with-color/bee-B2DM.svg\" width=\"200\">\n                    <p><br>Your bonus pay is unchanged, and remains at $0.52.</p>\n            ","response":0,"trial_type":"html-button-response","trial_index":20,"time_elapsed":343014,"internal_node_id":"0.0-4.0-1.6","subject_id":"61670b85f91be7f7618712b5","study_id":"6197b3f67c2b5cd3b6d9596a","session_id":"6197b5c6698a415f67ddc4cd","condition":"contingent","relevant_dimensions":["wings","pattern"],"bee_group":{"antennae":"X","wings":"2","pattern":"D","legs":"X"},"bonus":0.14},{"rt":1999,"stimulus":"bees-with-color/bee-A2SF.svg","response":0,"trial_type":"image-button-response","trial_index":21,"time_elapsed":345015,"internal_node_id":"0.0-4.0-0.7","subject_id":"61670b85f91be7f7618712b5","study_id":"6197b3f67c2b5cd3b6d9596a","session_id":"6197b5c6698a415f67ddc4cd","condition":"contingent","relevant_dimensions":["wings","pattern"],"bee_group":{"antennae":"X","wings":"2","pattern":"D","legs":"X"},"action":"harvest","summary":"good-harvest","bonus":0.14},{"rt":3228.100000023842,"stimulus":"\n                    <p><b>Action: <em>harvest</em></b></p>\n                    <p>This is the bee that you just saw.</p>\n                    <img src=\"bees-with-color/bee-A2SF.svg\" width=\"200\">\n                    <p><span class=\"greenText\"><b>Successful harvest!</b></span><br>Your pay has increased by $0.02. Your bonus pay is now $0.54.</p>\n            ","response":0,"trial_type":"html-button-response","trial_index":22,"time_elapsed":348245,"internal_node_id":"0.0-4.0-1.7","subject_id":"61670b85f91be7f7618712b5","study_id":"6197b3f67c2b5cd3b6d9596a","session_id":"6197b5c6698a415f67ddc4cd","condition":"contingent","relevant_dimensions":["wings","pattern"],"bee_group":{"antennae":"X","wings":"2","pattern":"D","legs":"X"},"bonus":0.14},{"rt":2137.100000023842,"stimulus":"bees-with-color/bee-B2SF.svg","response":0,"trial_type":"image-button-response","trial_index":23,"time_elapsed":350385,"internal_node_id":"0.0-4.0-0.8","subject_id":"61670b85f91be7f7618712b5","study_id":"6197b3f67c2b5cd3b6d9596a","session_id":"6197b5c6698a415f67ddc4cd","condition":"contingent","relevant_dimensions":["wings","pattern"],"bee_group":{"antennae":"X","wings":"2","pattern":"D","legs":"X"},"action":"harvest","summary":"good-harvest","bonus":0.14},{"rt":2606.6999999284744,"stimulus":"\n                    <p><b>Action: <em>harvest</em></b></p>\n                    <p>This is the bee that you just saw.</p>\n                    <img src=\"bees-with-color/bee-B2SF.svg\" width=\"200\">\n                    <p><span class=\"greenText\"><b>Successful harvest!</b></span><br>Your pay has increased by $0.02. Your bonus pay is now $0.56.</p>\n            ","response":0,"trial_type":"html-button-response","trial_index":24,"time_elapsed":352994,"internal_node_id":"0.0-4.0-1.8","subject_id":"61670b85f91be7f7618712b5","study_id":"6197b3f67c2b5cd3b6d9596a","session_id":"6197b5c6698a415f67ddc4cd","condition":"contingent","relevant_dimensions":["wings","pattern"],"bee_group":{"antennae":"X","wings":"2","pattern":"D","legs":"X"},"bonus":0.14},{"rt":1839.1000000238419,"stimulus":"bees-with-color/bee-A1SF.svg","response":0,"trial_type":"image-button-response","trial_index":25,"time_elapsed":354836,"internal_node_id":"0.0-4.0-0.9","subject_id":"61670b85f91be7f7618712b5","study_id":"6197b3f67c2b5cd3b6d9596a","session_id":"6197b5c6698a415f67ddc4cd","condition":"contingent","relevant_dimensions":["wings","pattern"],"bee_group":{"antennae":"X","wings":"2","pattern":"D","legs":"X"},"action":"harvest","summary":"good-harvest","bonus":0.14},{"rt":1862.5,"stimulus":"\n                    <p><b>Action: <em>harvest</em></b></p>\n                    <p>This is the bee that you just saw.</p>\n                    <img src=\"bees-with-color/bee-A1SF.svg\" width=\"200\">\n                    <p><span class=\"greenText\"><b>Successful harvest!</b></span><br>Your pay has increased by $0.02. Your bonus pay is now $0.58.</p>\n            ","response":0,"trial_type":"html-button-response","trial_index":26,"time_elapsed":356700,"internal_node_id":"0.0-4.0-1.9","subject_id":"61670b85f91be7f7618712b5","study_id":"6197b3f67c2b5cd3b6d9596a","session_id":"6197b5c6698a415f67ddc4cd","condition":"contingent","relevant_dimensions":["wings","pattern"],"bee_group":{"antennae":"X","wings":"2","pattern":"D","legs":"X"},"bonus":0.14},{"rt":1569.3000000715256,"stimulus":"bees-with-color/bee-A1SM.svg","response":1,"trial_type":"image-button-response","trial_index":27,"time_elapsed":358272,"internal_node_id":"0.0-4.0-0.10","subject_id":"61670b85f91be7f7618712b5","study_id":"6197b3f67c2b5cd3b6d9596a","session_id":"6197b5c6698a415f67ddc4cd","condition":"contingent","relevant_dimensions":["wings","pattern"],"bee_group":{"antennae":"X","wings":"2","pattern":"D","legs":"X"},"action":"avoid","summary":"bad-avoid","bonus":0.14},{"rt":2324.2999999523163,"stimulus":"\n                    <p><b>Action: <em>avoid</em></b></p>\n                    <p>This is the bee that you just saw.</p>\n                    <img src=\"bees-with-color/bee-A1SM.svg\" width=\"200\">\n                    <p><br>Your bonus pay is unchanged, and remains at $0.58.</p>\n            ","response":0,"trial_type":"html-button-response","trial_index":28,"time_elapsed":360598,"internal_node_id":"0.0-4.0-1.10","subject_id":"61670b85f91be7f7618712b5","study_id":"6197b3f67c2b5cd3b6d9596a","session_id":"6197b5c6698a415f67ddc4cd","condition":"contingent","relevant_dimensions":["wings","pattern"],"bee_group":{"antennae":"X","wings":"2","pattern":"D","legs":"X"},"bonus":0.14},{"rt":1823.2999999523163,"stimulus":"bees-with-color/bee-A2DF.svg","response":0,"trial_type":"image-button-response","trial_index":29,"time_elapsed":362424,"internal_node_id":"0.0-4.0-0.11","subject_id":"61670b85f91be7f7618712b5","study_id":"6197b3f67c2b5cd3b6d9596a","session_id":"6197b5c6698a415f67ddc4cd","condition":"contingent","relevant_dimensions":["wings","pattern"],"bee_group":{"antennae":"X","wings":"2","pattern":"D","legs":"X"},"action":"harvest","summary":"bad-harvest","bonus":0.14},{"rt":2272.7000000476837,"stimulus":"\n                    <p><b>Action: <em>harvest</em></b></p>\n                    <p>This is the bee that you just saw.</p>\n                    <img src=\"bees-with-color/bee-A2DF.svg\" width=\"200\">\n                    <p><span class=\"redText\">Bad choice, the bee was angry.</span><br><b>You have been stung!</b><br>Your pay has been decreased by $0.10. Your bonus pay is now $0.48.</p>\n            ","response":0,"trial_type":"html-button-response","trial_index":30,"time_elapsed":364699,"internal_node_id":"0.0-4.0-1.11","subject_id":"61670b85f91be7f7618712b5","study_id":"6197b3f67c2b5cd3b6d9596a","session_id":"6197b5c6698a415f67ddc4cd","condition":"contingent","relevant_dimensions":["wings","pattern"],"bee_group":{"antennae":"X","wings":"2","pattern":"D","legs":"X"},"bonus":0.14},{"rt":2643.9000000953674,"stimulus":"bees-with-color/bee-B1SF.svg","response":1,"trial_type":"image-button-response","trial_index":31,"time_elapsed":367346,"internal_node_id":"0.0-4.0-0.12","subject_id":"61670b85f91be7f7618712b5","study_id":"6197b3f67c2b5cd3b6d9596a","session_id":"6197b5c6698a415f67ddc4cd","condition":"contingent","relevant_dimensions":["wings","pattern"],"bee_group":{"antennae":"X","wings":"2","pattern":"D","legs":"X"},"action":"avoid","summary":"bad-avoid","bonus":0.14},{"rt":1721.1000000238419,"stimulus":"\n                    <p><b>Action: <em>avoid</em></b></p>\n                    <p>This is the bee that you just saw.</p>\n                    <img src=\"bees-with-color/bee-B1SF.svg\" width=\"200\">\n                    <p><br>Your bonus pay is unchanged, and remains at $0.48.</p>\n            ","response":0,"trial_type":"html-button-response","trial_index":32,"time_elapsed":369071,"internal_node_id":"0.0-4.0-1.12","subject_id":"61670b85f91be7f7618712b5","study_id":"6197b3f67c2b5cd3b6d9596a","session_id":"6197b5c6698a415f67ddc4cd","condition":"contingent","relevant_dimensions":["wings","pattern"],"bee_group":{"antennae":"X","wings":"2","pattern":"D","legs":"X"},"bonus":0.14},{"rt":1518.7999999523163,"stimulus":"bees-with-color/bee-B1SM.svg","response":0,"trial_type":"image-button-response","trial_index":33,"time_elapsed":370592,"internal_node_id":"0.0-4.0-0.13","subject_id":"61670b85f91be7f7618712b5","study_id":"6197b3f67c2b5cd3b6d9596a","session_id":"6197b5c6698a415f67ddc4cd","condition":"contingent","relevant_dimensions":["wings","pattern"],"bee_group":{"antennae":"X","wings":"2","pattern":"D","legs":"X"},"action":"harvest","summary":"good-harvest","bonus":0.14},{"rt":2144.7999999523163,"stimulus":"\n                    <p><b>Action: <em>harvest</em></b></p>\n                    <p>This is the bee that you just saw.</p>\n                    <img src=\"bees-with-color/bee-B1SM.svg\" width=\"200\">\n                    <p><span class=\"greenText\"><b>Successful harvest!</b></span><br>Your pay has increased by $0.02. Your bonus pay is now $0.50.</p>\n            ","response":0,"trial_type":"html-button-response","trial_index":34,"time_elapsed":372739,"internal_node_id":"0.0-4.0-1.13","subject_id":"61670b85f91be7f7618712b5","study_id":"6197b3f67c2b5cd3b6d9596a","session_id":"6197b5c6698a415f67ddc4cd","condition":"contingent","relevant_dimensions":["wings","pattern"],"bee_group":{"antennae":"X","wings":"2","pattern":"D","legs":"X"},"bonus":0.14},{"rt":1648.9000000953674,"stimulus":"bees-with-color/bee-B2DF.svg","response":0,"trial_type":"image-button-response","trial_index":35,"time_elapsed":374390,"internal_node_id":"0.0-4.0-0.14","subject_id":"61670b85f91be7f7618712b5","study_id":"6197b3f67c2b5cd3b6d9596a","session_id":"6197b5c6698a415f67ddc4cd","condition":"contingent","relevant_dimensions":["wings","pattern"],"bee_group":{"antennae":"X","wings":"2","pattern":"D","legs":"X"},"action":"harvest","summary":"bad-harvest","bonus":0.14},{"rt":1723,"stimulus":"\n                    <p><b>Action: <em>harvest</em></b></p>\n                    <p>This is the bee that you just saw.</p>\n                    <img src=\"bees-with-color/bee-B2DF.svg\" width=\"200\">\n                    <p><span class=\"redText\">Bad choice, the bee was angry.</span><br><b>You have been stung!</b><br>Your pay has been decreased by $0.10. Your bonus pay is now $0.40.</p>\n            ","response":0,"trial_type":"html-button-response","trial_index":36,"time_elapsed":376115,"internal_node_id":"0.0-4.0-1.14","subject_id":"61670b85f91be7f7618712b5","study_id":"6197b3f67c2b5cd3b6d9596a","session_id":"6197b5c6698a415f67ddc4cd","condition":"contingent","relevant_dimensions":["wings","pattern"],"bee_group":{"antennae":"X","wings":"2","pattern":"D","legs":"X"},"bonus":0.14},{"rt":1736.2999999523163,"stimulus":"bees-with-color/bee-A2SM.svg","response":1,"trial_type":"image-button-response","trial_index":37,"time_elapsed":377853,"internal_node_id":"0.0-4.0-0.15","subject_id":"61670b85f91be7f7618712b5","study_id":"6197b3f67c2b5cd3b6d9596a","session_id":"6197b5c6698a415f67ddc4cd","condition":"contingent","relevant_dimensions":["wings","pattern"],"bee_group":{"antennae":"X","wings":"2","pattern":"D","legs":"X"},"action":"avoid","summary":"bad-avoid","bonus":0.14},{"rt":1514.1000000238419,"stimulus":"\n                    <p><b>Action: <em>avoid</em></b></p>\n                    <p>This is the bee that you just saw.</p>\n                    <img src=\"bees-with-color/bee-A2SM.svg\" width=\"200\">\n                    <p><br>Your bonus pay is unchanged, and remains at $0.40.</p>\n            ","response":0,"trial_type":"html-button-response","trial_index":38,"time_elapsed":379369,"internal_node_id":"0.0-4.0-1.15","subject_id":"61670b85f91be7f7618712b5","study_id":"6197b3f67c2b5cd3b6d9596a","session_id":"6197b5c6698a415f67ddc4cd","condition":"contingent","relevant_dimensions":["wings","pattern"],"bee_group":{"antennae":"X","wings":"2","pattern":"D","legs":"X"},"bonus":0.14},{"rt":1500.5,"stimulus":"bees-with-color/bee-A1DF.svg","response":0,"trial_type":"image-button-response","trial_index":39,"time_elapsed":380872,"internal_node_id":"0.0-4.0-0.16","subject_id":"61670b85f91be7f7618712b5","study_id":"6197b3f67c2b5cd3b6d9596a","session_id":"6197b5c6698a415f67ddc4cd","condition":"contingent","relevant_dimensions":["wings","pattern"],"bee_group":{"antennae":"X","wings":"2","pattern":"D","legs":"X"},"action":"harvest","summary":"good-harvest","bonus":0.14},{"rt":1798.1000000238419,"stimulus":"\n                    <p><b>Action: <em>harvest</em></b></p>\n                    <p>This is the bee that you just saw.</p>\n                    <img src=\"bees-with-color/bee-A1DF.svg\" width=\"200\">\n                    <p><span class=\"greenText\"><b>Successful harvest!</b></span><br>Your pay has increased by $0.02. Your bonus pay is now $0.42.</p>\n            ","response":0,"trial_type":"html-button-response","trial_index":40,"time_elapsed":382673,"internal_node_id":"0.0-4.0-1.16","subject_id":"61670b85f91be7f7618712b5","study_id":"6197b3f67c2b5cd3b6d9596a","session_id":"6197b5c6698a415f67ddc4cd","condition":"contingent","relevant_dimensions":["wings","pattern"],"bee_group":{"antennae":"X","wings":"2","pattern":"D","legs":"X"},"bonus":0.14},{"rt":1558.5,"stimulus":"bees-with-color/bee-B2SF.svg","response":0,"trial_type":"image-button-response","trial_index":41,"time_elapsed":384234,"internal_node_id":"0.0-4.0-0.17","subject_id":"61670b85f91be7f7618712b5","study_id":"6197b3f67c2b5cd3b6d9596a","session_id":"6197b5c6698a415f67ddc4cd","condition":"contingent","relevant_dimensions":["wings","pattern"],"bee_group":{"antennae":"X","wings":"2","pattern":"D","legs":"X"},"action":"harvest","summary":"good-harvest","bonus":0.14},{"rt":1895.7000000476837,"stimulus":"\n                    <p><b>Action: <em>harvest</em></b></p>\n                    <p>This is the bee that you just saw.</p>\n                    <img src=\"bees-with-color/bee-B2SF.svg\" width=\"200\">\n                    <p><span class=\"greenText\"><b>Successful harvest!</b></span><br>Your pay has increased by $0.02. Your bonus pay is now $0.44.</p>\n            ","response":0,"trial_type":"html-button-response","trial_index":42,"time_elapsed":386132,"internal_node_id":"0.0-4.0-1.17","subject_id":"61670b85f91be7f7618712b5","study_id":"6197b3f67c2b5cd3b6d9596a","session_id":"6197b5c6698a415f67ddc4cd","condition":"contingent","relevant_dimensions":["wings","pattern"],"bee_group":{"antennae":"X","wings":"2","pattern":"D","legs":"X"},"bonus":0.14},{"rt":1862,"stimulus":"bees-with-color/bee-A1SM.svg","response":1,"trial_type":"image-button-response","trial_index":43,"time_elapsed":387996,"internal_node_id":"0.0-4.0-0.18","subject_id":"61670b85f91be7f7618712b5","study_id":"6197b3f67c2b5cd3b6d9596a","session_id":"6197b5c6698a415f67ddc4cd","condition":"contingent","relevant_dimensions":["wings","pattern"],"bee_group":{"antennae":"X","wings":"2","pattern":"D","legs":"X"},"action":"avoid","summary":"bad-avoid","bonus":0.14},{"rt":1939.3000000715256,"stimulus":"\n                    <p><b>Action: <em>avoid</em></b></p>\n                    <p>This is the bee that you just saw.</p>\n                    <img src=\"bees-with-color/bee-A1SM.svg\" width=\"200\">\n                    <p><br>Your bonus pay is unchanged, and remains at $0.44.</p>\n            ","response":0,"trial_type":"html-button-response","trial_index":44,"time_elapsed":389937,"internal_node_id":"0.0-4.0-1.18","subject_id":"61670b85f91be7f7618712b5","study_id":"6197b3f67c2b5cd3b6d9596a","session_id":"6197b5c6698a415f67ddc4cd","condition":"contingent","relevant_dimensions":["wings","pattern"],"bee_group":{"antennae":"X","wings":"2","pattern":"D","legs":"X"},"bonus":0.14},{"rt":1460.3999999761581,"stimulus":"bees-with-color/bee-B2SM.svg","response":1,"trial_type":"image-button-response","trial_index":45,"time_elapsed":391400,"internal_node_id":"0.0-4.0-0.19","subject_id":"61670b85f91be7f7618712b5","study_id":"6197b3f67c2b5cd3b6d9596a","session_id":"6197b5c6698a415f67ddc4cd","condition":"contingent","relevant_dimensions":["wings","pattern"],"bee_group":{"antennae":"X","wings":"2","pattern":"D","legs":"X"},"action":"avoid","summary":"bad-avoid","bonus":0.14},{"rt":1692.2000000476837,"stimulus":"\n                    <p><b>Action: <em>avoid</em></b></p>\n                    <p>This is the bee that you just saw.</p>\n                    <img src=\"bees-with-color/bee-B2SM.svg\" width=\"200\">\n                    <p><br>Your bonus pay is unchanged, and remains at $0.44.</p>\n            ","response":0,"trial_type":"html-button-response","trial_index":46,"time_elapsed":393094,"internal_node_id":"0.0-4.0-1.19","subject_id":"61670b85f91be7f7618712b5","study_id":"6197b3f67c2b5cd3b6d9596a","session_id":"6197b5c6698a415f67ddc4cd","condition":"contingent","relevant_dimensions":["wings","pattern"],"bee_group":{"antennae":"X","wings":"2","pattern":"D","legs":"X"},"bonus":0.14},{"rt":1499.5,"stimulus":"bees-with-color/bee-A1SF.svg","response":0,"trial_type":"image-button-response","trial_index":47,"time_elapsed":394596,"internal_node_id":"0.0-4.0-0.20","subject_id":"61670b85f91be7f7618712b5","study_id":"6197b3f67c2b5cd3b6d9596a","session_id":"6197b5c6698a415f67ddc4cd","condition":"contingent","relevant_dimensions":["wings","pattern"],"bee_group":{"antennae":"X","wings":"2","pattern":"D","legs":"X"},"action":"harvest","summary":"good-harvest","bonus":0.14},{"rt":1870.4000000953674,"stimulus":"\n                    <p><b>Action: <em>harvest</em></b></p>\n                    <p>This is the bee that you just saw.</p>\n                    <img src=\"bees-with-color/bee-A1SF.svg\" width=\"200\">\n                    <p><span class=\"greenText\"><b>Successful harvest!</b></span><br>Your pay has increased by $0.02. Your bonus pay is now $0.46.</p>\n            ","response":0,"trial_type":"html-button-response","trial_index":48,"time_elapsed":396469,"internal_node_id":"0.0-4.0-1.20","subject_id":"61670b85f91be7f7618712b5","study_id":"6197b3f67c2b5cd3b6d9596a","session_id":"6197b5c6698a415f67ddc4cd","condition":"contingent","relevant_dimensions":["wings","pattern"],"bee_group":{"antennae":"X","wings":"2","pattern":"D","legs":"X"},"bonus":0.14},{"rt":2027.7999999523163,"stimulus":"bees-with-color/bee-A2DF.svg","response":0,"trial_type":"image-button-response","trial_index":49,"time_elapsed":398499,"internal_node_id":"0.0-4.0-0.21","subject_id":"61670b85f91be7f7618712b5","study_id":"6197b3f67c2b5cd3b6d9596a","session_id":"6197b5c6698a415f67ddc4cd","condition":"contingent","relevant_dimensions":["wings","pattern"],"bee_group":{"antennae":"X","wings":"2","pattern":"D","legs":"X"},"action":"harvest","summary":"bad-harvest","bonus":0.14},{"rt":1589.2000000476837,"stimulus":"\n                    <p><b>Action: <em>harvest</em></b></p>\n                    <p>This is the bee that you just saw.</p>\n                    <img src=\"bees-with-color/bee-A2DF.svg\" width=\"200\">\n                    <p><span class=\"redText\">Bad choice, the bee was angry.</span><br><b>You have been stung!</b><br>Your pay has been decreased by $0.10. Your bonus pay is now $0.36.</p>\n            ","response":0,"trial_type":"html-button-response","trial_index":50,"time_elapsed":400090,"internal_node_id":"0.0-4.0-1.21","subject_id":"61670b85f91be7f7618712b5","study_id":"6197b3f67c2b5cd3b6d9596a","session_id":"6197b5c6698a415f67ddc4cd","condition":"contingent","relevant_dimensions":["wings","pattern"],"bee_group":{"antennae":"X","wings":"2","pattern":"D","legs":"X"},"bonus":0.14},{"rt":1203.5,"stimulus":"bees-with-color/bee-B1DM.svg","response":1,"trial_type":"image-button-response","trial_index":51,"time_elapsed":401296,"internal_node_id":"0.0-4.0-0.22","subject_id":"61670b85f91be7f7618712b5","study_id":"6197b3f67c2b5cd3b6d9596a","session_id":"6197b5c6698a415f67ddc4cd","condition":"contingent","relevant_dimensions":["wings","pattern"],"bee_group":{"antennae":"X","wings":"2","pattern":"D","legs":"X"},"action":"avoid","summary":"bad-avoid","bonus":0.14},{"rt":1700.1000000238419,"stimulus":"\n                    <p><b>Action: <em>avoid</em></b></p>\n                    <p>This is the bee that you just saw.</p>\n                    <img src=\"bees-with-color/bee-B1DM.svg\" width=\"200\">\n                    <p><br>Your bonus pay is unchanged, and remains at $0.36.</p>\n            ","response":0,"trial_type":"html-button-response","trial_index":52,"time_elapsed":402998,"internal_node_id":"0.0-4.0-1.22","subject_id":"61670b85f91be7f7618712b5","study_id":"6197b3f67c2b5cd3b6d9596a","session_id":"6197b5c6698a415f67ddc4cd","condition":"contingent","relevant_dimensions":["wings","pattern"],"bee_group":{"antennae":"X","wings":"2","pattern":"D","legs":"X"},"bonus":0.14},{"rt":1475.8999999761581,"stimulus":"bees-with-color/bee-B2DF.svg","response":0,"trial_type":"image-button-response","trial_index":53,"time_elapsed":404476,"internal_node_id":"0.0-4.0-0.23","subject_id":"61670b85f91be7f7618712b5","study_id":"6197b3f67c2b5cd3b6d9596a","session_id":"6197b5c6698a415f67ddc4cd","condition":"contingent","relevant_dimensions":["wings","pattern"],"bee_group":{"antennae":"X","wings":"2","pattern":"D","legs":"X"},"action":"harvest","summary":"bad-harvest","bonus":0.14},{"rt":1537.3000000715256,"stimulus":"\n                    <p><b>Action: <em>harvest</em></b></p>\n                    <p>This is the bee that you just saw.</p>\n                    <img src=\"bees-with-color/bee-B2DF.svg\" width=\"200\">\n                    <p><span class=\"redText\">Bad choice, the bee was angry.</span><br><b>You have been stung!</b><br>Your pay has been decreased by $0.10. Your bonus pay is now $0.26.</p>\n            ","response":0,"trial_type":"html-button-response","trial_index":54,"time_elapsed":406016,"internal_node_id":"0.0-4.0-1.23","subject_id":"61670b85f91be7f7618712b5","study_id":"6197b3f67c2b5cd3b6d9596a","session_id":"6197b5c6698a415f67ddc4cd","condition":"contingent","relevant_dimensions":["wings","pattern"],"bee_group":{"antennae":"X","wings":"2","pattern":"D","legs":"X"},"bonus":0.14},{"rt":1303.2000000476837,"stimulus":"bees-with-color/bee-B1SF.svg","response":1,"trial_type":"image-button-response","trial_index":55,"time_elapsed":407321,"internal_node_id":"0.0-4.0-0.24","subject_id":"61670b85f91be7f7618712b5","study_id":"6197b3f67c2b5cd3b6d9596a","session_id":"6197b5c6698a415f67ddc4cd","condition":"contingent","relevant_dimensions":["wings","pattern"],"bee_group":{"antennae":"X","wings":"2","pattern":"D","legs":"X"},"action":"avoid","summary":"bad-avoid","bonus":0.14},{"rt":1721.1999999284744,"stimulus":"\n                    <p><b>Action: <em>avoid</em></b></p>\n                    <p>This is the bee that you just saw.</p>\n                    <img src=\"bees-with-color/bee-B1SF.svg\" width=\"200\">\n                    <p><br>Your bonus pay is unchanged, and remains at $0.26.</p>\n            ","response":0,"trial_type":"html-button-response","trial_index":56,"time_elapsed":409044,"internal_node_id":"0.0-4.0-1.24","subject_id":"61670b85f91be7f7618712b5","study_id":"6197b3f67c2b5cd3b6d9596a","session_id":"6197b5c6698a415f67ddc4cd","condition":"contingent","relevant_dimensions":["wings","pattern"],"bee_group":{"antennae":"X","wings":"2","pattern":"D","legs":"X"},"bonus":0.14},{"rt":1267.3999999761581,"stimulus":"bees-with-color/bee-A1DM.svg","response":1,"trial_type":"image-button-response","trial_index":57,"time_elapsed":410313,"internal_node_id":"0.0-4.0-0.25","subject_id":"61670b85f91be7f7618712b5","study_id":"6197b3f67c2b5cd3b6d9596a","session_id":"6197b5c6698a415f67ddc4cd","condition":"contingent","relevant_dimensions":["wings","pattern"],"bee_group":{"antennae":"X","wings":"2","pattern":"D","legs":"X"},"action":"avoid","summary":"bad-avoid","bonus":0.14},{"rt":1403.8999999761581,"stimulus":"\n                    <p><b>Action: <em>avoid</em></b></p>\n                    <p>This is the bee that you just saw.</p>\n                    <img src=\"bees-with-color/bee-A1DM.svg\" width=\"200\">\n                    <p><br>Your bonus pay is unchanged, and remains at $0.26.</p>\n            ","response":0,"trial_type":"html-button-response","trial_index":58,"time_elapsed":411719,"internal_node_id":"0.0-4.0-1.25","subject_id":"61670b85f91be7f7618712b5","study_id":"6197b3f67c2b5cd3b6d9596a","session_id":"6197b5c6698a415f67ddc4cd","condition":"contingent","relevant_dimensions":["wings","pattern"],"bee_group":{"antennae":"X","wings":"2","pattern":"D","legs":"X"},"bonus":0.14},{"rt":2025.5,"stimulus":"bees-with-color/bee-A2SM.svg","response":0,"trial_type":"image-button-response","trial_index":59,"time_elapsed":413747,"internal_node_id":"0.0-4.0-0.26","subject_id":"61670b85f91be7f7618712b5","study_id":"6197b3f67c2b5cd3b6d9596a","session_id":"6197b5c6698a415f67ddc4cd","condition":"contingent","relevant_dimensions":["wings","pattern"],"bee_group":{"antennae":"X","wings":"2","pattern":"D","legs":"X"},"action":"harvest","summary":"good-harvest","bonus":0.14},{"rt":2141.8000000715256,"stimulus":"\n                    <p><b>Action: <em>harvest</em></b></p>\n                    <p>This is the bee that you just saw.</p>\n                    <img src=\"bees-with-color/bee-A2SM.svg\" width=\"200\">\n                    <p><span class=\"greenText\"><b>Successful harvest!</b></span><br>Your pay has increased by $0.02. Your bonus pay is now $0.28.</p>\n            ","response":0,"trial_type":"html-button-response","trial_index":60,"time_elapsed":415891,"internal_node_id":"0.0-4.0-1.26","subject_id":"61670b85f91be7f7618712b5","study_id":"6197b3f67c2b5cd3b6d9596a","session_id":"6197b5c6698a415f67ddc4cd","condition":"contingent","relevant_dimensions":["wings","pattern"],"bee_group":{"antennae":"X","wings":"2","pattern":"D","legs":"X"},"bonus":0.14},{"rt":2537.6999999284744,"stimulus":"bees-with-color/bee-B1SM.svg","response":0,"trial_type":"image-button-response","trial_index":61,"time_elapsed":418431,"internal_node_id":"0.0-4.0-0.27","subject_id":"61670b85f91be7f7618712b5","study_id":"6197b3f67c2b5cd3b6d9596a","session_id":"6197b5c6698a415f67ddc4cd","condition":"contingent","relevant_dimensions":["wings","pattern"],"bee_group":{"antennae":"X","wings":"2","pattern":"D","legs":"X"},"action":"harvest","summary":"good-harvest","bonus":0.14},{"rt":1539.2000000476837,"stimulus":"\n                    <p><b>Action: <em>harvest</em></b></p>\n                    <p>This is the bee that you just saw.</p>\n                    <img src=\"bees-with-color/bee-B1SM.svg\" width=\"200\">\n                    <p><span class=\"greenText\"><b>Successful harvest!</b></span><br>Your pay has increased by $0.02. Your bonus pay is now $0.30.</p>\n            ","response":0,"trial_type":"html-button-response","trial_index":62,"time_elapsed":419973,"internal_node_id":"0.0-4.0-1.27","subject_id":"61670b85f91be7f7618712b5","study_id":"6197b3f67c2b5cd3b6d9596a","session_id":"6197b5c6698a415f67ddc4cd","condition":"contingent","relevant_dimensions":["wings","pattern"],"bee_group":{"antennae":"X","wings":"2","pattern":"D","legs":"X"},"bonus":0.14},{"rt":2583.7000000476837,"stimulus":"bees-with-color/bee-B2DM.svg","response":1,"trial_type":"image-button-response","trial_index":63,"time_elapsed":422559,"internal_node_id":"0.0-4.0-0.28","subject_id":"61670b85f91be7f7618712b5","study_id":"6197b3f67c2b5cd3b6d9596a","session_id":"6197b5c6698a415f67ddc4cd","condition":"contingent","relevant_dimensions":["wings","pattern"],"bee_group":{"antennae":"X","wings":"2","pattern":"D","legs":"X"},"action":"avoid","summary":"good-avoid","bonus":0.14},{"rt":2419.100000023842,"stimulus":"\n                    <p><b>Action: <em>avoid</em></b></p>\n                    <p>This is the bee that you just saw.</p>\n                    <img src=\"bees-with-color/bee-B2DM.svg\" width=\"200\">\n                    <p><br>Your bonus pay is unchanged, and remains at $0.30.</p>\n            ","response":0,"trial_type":"html-button-response","trial_index":64,"time_elapsed":424980,"internal_node_id":"0.0-4.0-1.28","subject_id":"61670b85f91be7f7618712b5","study_id":"6197b3f67c2b5cd3b6d9596a","session_id":"6197b5c6698a415f67ddc4cd","condition":"contingent","relevant_dimensions":["wings","pattern"],"bee_group":{"antennae":"X","wings":"2","pattern":"D","legs":"X"},"bonus":0.14},{"rt":1522.8999999761581,"stimulus":"bees-with-color/bee-A2SF.svg","response":0,"trial_type":"image-button-response","trial_index":65,"time_elapsed":426505,"internal_node_id":"0.0-4.0-0.29","subject_id":"61670b85f91be7f7618712b5","study_id":"6197b3f67c2b5cd3b6d9596a","session_id":"6197b5c6698a415f67ddc4cd","condition":"contingent","relevant_dimensions":["wings","pattern"],"bee_group":{"antennae":"X","wings":"2","pattern":"D","legs":"X"},"action":"harvest","summary":"good-harvest","bonus":0.14},{"rt":2178.2999999523163,"stimulus":"\n                    <p><b>Action: <em>harvest</em></b></p>\n                    <p>This is the bee that you just saw.</p>\n                    <img src=\"bees-with-color/bee-A2SF.svg\" width=\"200\">\n                    <p><span class=\"greenText\"><b>Successful harvest!</b></span><br>Your pay has increased by $0.02. Your bonus pay is now $0.32.</p>\n            ","response":0,"trial_type":"html-button-response","trial_index":66,"time_elapsed":428686,"internal_node_id":"0.0-4.0-1.29","subject_id":"61670b85f91be7f7618712b5","study_id":"6197b3f67c2b5cd3b6d9596a","session_id":"6197b5c6698a415f67ddc4cd","condition":"contingent","relevant_dimensions":["wings","pattern"],"bee_group":{"antennae":"X","wings":"2","pattern":"D","legs":"X"},"bonus":0.14},{"rt":1423.6999999284744,"stimulus":"bees-with-color/bee-B1DF.svg","response":0,"trial_type":"image-button-response","trial_index":67,"time_elapsed":430112,"internal_node_id":"0.0-4.0-0.30","subject_id":"61670b85f91be7f7618712b5","study_id":"6197b3f67c2b5cd3b6d9596a","session_id":"6197b5c6698a415f67ddc4cd","condition":"contingent","relevant_dimensions":["wings","pattern"],"bee_group":{"antennae":"X","wings":"2","pattern":"D","legs":"X"},"action":"harvest","summary":"good-harvest","bonus":0.14},{"rt":1592.7000000476837,"stimulus":"\n                    <p><b>Action: <em>harvest</em></b></p>\n                    <p>This is the bee that you just saw.</p>\n                    <img src=\"bees-with-color/bee-B1DF.svg\" width=\"200\">\n                    <p><span class=\"greenText\"><b>Successful harvest!</b></span><br>Your pay has increased by $0.02. Your bonus pay is now $0.34.</p>\n            ","response":0,"trial_type":"html-button-response","trial_index":68,"time_elapsed":431707,"internal_node_id":"0.0-4.0-1.30","subject_id":"61670b85f91be7f7618712b5","study_id":"6197b3f67c2b5cd3b6d9596a","session_id":"6197b5c6698a415f67ddc4cd","condition":"contingent","relevant_dimensions":["wings","pattern"],"bee_group":{"antennae":"X","wings":"2","pattern":"D","legs":"X"},"bonus":0.14},{"rt":1479.8999999761581,"stimulus":"bees-with-color/bee-A2DM.svg","response":1,"trial_type":"image-button-response","trial_index":69,"time_elapsed":433189,"internal_node_id":"0.0-4.0-0.31","subject_id":"61670b85f91be7f7618712b5","study_id":"6197b3f67c2b5cd3b6d9596a","session_id":"6197b5c6698a415f67ddc4cd","condition":"contingent","relevant_dimensions":["wings","pattern"],"bee_group":{"antennae":"X","wings":"2","pattern":"D","legs":"X"},"action":"avoid","summary":"good-avoid","bonus":0.14},{"rt":2583.100000023842,"stimulus":"\n                    <p><b>Action: <em>avoid</em></b></p>\n                    <p>This is the bee that you just saw.</p>\n                    <img src=\"bees-with-color/bee-A2DM.svg\" width=\"200\">\n                    <p><br>Your bonus pay is unchanged, and remains at $0.34.</p>\n            ","response":0,"trial_type":"html-button-response","trial_index":70,"time_elapsed":435774,"internal_node_id":"0.0-4.0-1.31","subject_id":"61670b85f91be7f7618712b5","study_id":"6197b3f67c2b5cd3b6d9596a","session_id":"6197b5c6698a415f67ddc4cd","condition":"contingent","relevant_dimensions":["wings","pattern"],"bee_group":{"antennae":"X","wings":"2","pattern":"D","legs":"X"},"bonus":0.14},{"rt":1534.8999999761581,"stimulus":"bees-with-color/bee-B1DM.svg","response":0,"trial_type":"image-button-response","trial_index":71,"time_elapsed":437311,"internal_node_id":"0.0-4.0-0.32","subject_id":"61670b85f91be7f7618712b5","study_id":"6197b3f67c2b5cd3b6d9596a","session_id":"6197b5c6698a415f67ddc4cd","condition":"contingent","relevant_dimensions":["wings","pattern"],"bee_group":{"antennae":"X","wings":"2","pattern":"D","legs":"X"},"action":"harvest","summary":"good-harvest","bonus":0.14},{"rt":1503.8999999761581,"stimulus":"\n                    <p><b>Action: <em>harvest</em></b></p>\n                    <p>This is the bee that you just saw.</p>\n                    <img src=\"bees-with-color/bee-B1DM.svg\" width=\"200\">\n                    <p><span class=\"greenText\"><b>Successful harvest!</b></span><br>Your pay has increased by $0.02. Your bonus pay is now $0.36.</p>\n            ","response":0,"trial_type":"html-button-response","trial_index":72,"time_elapsed":438818,"internal_node_id":"0.0-4.0-1.32","subject_id":"61670b85f91be7f7618712b5","study_id":"6197b3f67c2b5cd3b6d9596a","session_id":"6197b5c6698a415f67ddc4cd","condition":"contingent","relevant_dimensions":["wings","pattern"],"bee_group":{"antennae":"X","wings":"2","pattern":"D","legs":"X"},"bonus":0.14},{"rt":1780.6000000238419,"stimulus":"bees-with-color/bee-B2SM.svg","response":1,"trial_type":"image-button-response","trial_index":73,"time_elapsed":440601,"internal_node_id":"0.0-4.0-0.33","subject_id":"61670b85f91be7f7618712b5","study_id":"6197b3f67c2b5cd3b6d9596a","session_id":"6197b5c6698a415f67ddc4cd","condition":"contingent","relevant_dimensions":["wings","pattern"],"bee_group":{"antennae":"X","wings":"2","pattern":"D","legs":"X"},"action":"avoid","summary":"bad-avoid","bonus":0.14},{"rt":2450.899999976158,"stimulus":"\n                    <p><b>Action: <em>avoid</em></b></p>\n                    <p>This is the bee that you just saw.</p>\n                    <img src=\"bees-with-color/bee-B2SM.svg\" width=\"200\">\n                    <p><br>Your bonus pay is unchanged, and remains at $0.36.</p>\n            ","response":0,"trial_type":"html-button-response","trial_index":74,"time_elapsed":443054,"internal_node_id":"0.0-4.0-1.33","subject_id":"61670b85f91be7f7618712b5","study_id":"6197b3f67c2b5cd3b6d9596a","session_id":"6197b5c6698a415f67ddc4cd","condition":"contingent","relevant_dimensions":["wings","pattern"],"bee_group":{"antennae":"X","wings":"2","pattern":"D","legs":"X"},"bonus":0.14},{"rt":1411.6000000238419,"stimulus":"bees-with-color/bee-A1DF.svg","response":0,"trial_type":"image-button-response","trial_index":75,"time_elapsed":444468,"internal_node_id":"0.0-4.0-0.34","subject_id":"61670b85f91be7f7618712b5","study_id":"6197b3f67c2b5cd3b6d9596a","session_id":"6197b5c6698a415f67ddc4cd","condition":"contingent","relevant_dimensions":["wings","pattern"],"bee_group":{"antennae":"X","wings":"2","pattern":"D","legs":"X"},"action":"harvest","summary":"good-harvest","bonus":0.14},{"rt":1858.1000000238419,"stimulus":"\n                    <p><b>Action: <em>harvest</em></b></p>\n                    <p>This is the bee that you just saw.</p>\n                    <img src=\"bees-with-color/bee-A1DF.svg\" width=\"200\">\n                    <p><span class=\"greenText\"><b>Successful harvest!</b></span><br>Your pay has increased by $0.02. Your bonus pay is now $0.38.</p>\n            ","response":0,"trial_type":"html-button-response","trial_index":76,"time_elapsed":446328,"internal_node_id":"0.0-4.0-1.34","subject_id":"61670b85f91be7f7618712b5","study_id":"6197b3f67c2b5cd3b6d9596a","session_id":"6197b5c6698a415f67ddc4cd","condition":"contingent","relevant_dimensions":["wings","pattern"],"bee_group":{"antennae":"X","wings":"2","pattern":"D","legs":"X"},"bonus":0.14},{"rt":1957.8999999761581,"stimulus":"bees-with-color/bee-A2DF.svg","response":0,"trial_type":"image-button-response","trial_index":77,"time_elapsed":448288,"internal_node_id":"0.0-4.0-0.35","subject_id":"61670b85f91be7f7618712b5","study_id":"6197b3f67c2b5cd3b6d9596a","session_id":"6197b5c6698a415f67ddc4cd","condition":"contingent","relevant_dimensions":["wings","pattern"],"bee_group":{"antennae":"X","wings":"2","pattern":"D","legs":"X"},"action":"harvest","summary":"bad-harvest","bonus":0.14},{"rt":1701.3000000715256,"stimulus":"\n                    <p><b>Action: <em>harvest</em></b></p>\n                    <p>This is the bee that you just saw.</p>\n                    <img src=\"bees-with-color/bee-A2DF.svg\" width=\"200\">\n                    <p><span class=\"redText\">Bad choice, the bee was angry.</span><br><b>You have been stung!</b><br>Your pay has been decreased by $0.10. Your bonus pay is now $0.28.</p>\n            ","response":0,"trial_type":"html-button-response","trial_index":78,"time_elapsed":449992,"internal_node_id":"0.0-4.0-1.35","subject_id":"61670b85f91be7f7618712b5","study_id":"6197b3f67c2b5cd3b6d9596a","session_id":"6197b5c6698a415f67ddc4cd","condition":"contingent","relevant_dimensions":["wings","pattern"],"bee_group":{"antennae":"X","wings":"2","pattern":"D","legs":"X"},"bonus":0.14},{"rt":1043.5,"stimulus":"bees-with-color/bee-B1SF.svg","response":1,"trial_type":"image-button-response","trial_index":79,"time_elapsed":451038,"internal_node_id":"0.0-4.0-0.36","subject_id":"61670b85f91be7f7618712b5","study_id":"6197b3f67c2b5cd3b6d9596a","session_id":"6197b5c6698a415f67ddc4cd","condition":"contingent","relevant_dimensions":["wings","pattern"],"bee_group":{"antennae":"X","wings":"2","pattern":"D","legs":"X"},"action":"avoid","summary":"bad-avoid","bonus":0.14},{"rt":1517.5,"stimulus":"\n                    <p><b>Action: <em>avoid</em></b></p>\n                    <p>This is the bee that you just saw.</p>\n                    <img src=\"bees-with-color/bee-B1SF.svg\" width=\"200\">\n                    <p><br>Your bonus pay is unchanged, and remains at $0.28.</p>\n            ","response":0,"trial_type":"html-button-response","trial_index":80,"time_elapsed":452558,"internal_node_id":"0.0-4.0-1.36","subject_id":"61670b85f91be7f7618712b5","study_id":"6197b3f67c2b5cd3b6d9596a","session_id":"6197b5c6698a415f67ddc4cd","condition":"contingent","relevant_dimensions":["wings","pattern"],"bee_group":{"antennae":"X","wings":"2","pattern":"D","legs":"X"},"bonus":0.14},{"rt":1267,"stimulus":"bees-with-color/bee-B2SF.svg","response":0,"trial_type":"image-button-response","trial_index":81,"time_elapsed":453829,"internal_node_id":"0.0-4.0-0.37","subject_id":"61670b85f91be7f7618712b5","study_id":"6197b3f67c2b5cd3b6d9596a","session_id":"6197b5c6698a415f67ddc4cd","condition":"contingent","relevant_dimensions":["wings","pattern"],"bee_group":{"antennae":"X","wings":"2","pattern":"D","legs":"X"},"action":"harvest","summary":"good-harvest","bonus":0.14},{"rt":5486.899999976158,"stimulus":"\n                    <p><b>Action: <em>harvest</em></b></p>\n                    <p>This is the bee that you just saw.</p>\n                    <img src=\"bees-with-color/bee-B2SF.svg\" width=\"200\">\n                    <p><span class=\"greenText\"><b>Successful harvest!</b></span><br>Your pay has increased by $0.02. Your bonus pay is now $0.30.</p>\n            ","response":0,"trial_type":"html-button-response","trial_index":82,"time_elapsed":459318,"internal_node_id":"0.0-4.0-1.37","subject_id":"61670b85f91be7f7618712b5","study_id":"6197b3f67c2b5cd3b6d9596a","session_id":"6197b5c6698a415f67ddc4cd","condition":"contingent","relevant_dimensions":["wings","pattern"],"bee_group":{"antennae":"X","wings":"2","pattern":"D","legs":"X"},"bonus":0.14},{"rt":2282.5999999046326,"stimulus":"bees-with-color/bee-A2DM.svg","response":0,"trial_type":"image-button-response","trial_index":83,"time_elapsed":461604,"internal_node_id":"0.0-4.0-0.38","subject_id":"61670b85f91be7f7618712b5","study_id":"6197b3f67c2b5cd3b6d9596a","session_id":"6197b5c6698a415f67ddc4cd","condition":"contingent","relevant_dimensions":["wings","pattern"],"bee_group":{"antennae":"X","wings":"2","pattern":"D","legs":"X"},"action":"harvest","summary":"bad-harvest","bonus":0.14},{"rt":1765.5,"stimulus":"\n                    <p><b>Action: <em>harvest</em></b></p>\n                    <p>This is the bee that you just saw.</p>\n                    <img src=\"bees-with-color/bee-A2DM.svg\" width=\"200\">\n                    <p><span class=\"redText\">Bad choice, the bee was angry.</span><br><b>You have been stung!</b><br>Your pay has been decreased by $0.10. Your bonus pay is now $0.20.</p>\n            ","response":0,"trial_type":"html-button-response","trial_index":84,"time_elapsed":463372,"internal_node_id":"0.0-4.0-1.38","subject_id":"61670b85f91be7f7618712b5","study_id":"6197b3f67c2b5cd3b6d9596a","session_id":"6197b5c6698a415f67ddc4cd","condition":"contingent","relevant_dimensions":["wings","pattern"],"bee_group":{"antennae":"X","wings":"2","pattern":"D","legs":"X"},"bonus":0.14},{"rt":1296.7999999523163,"stimulus":"bees-with-color/bee-A2SF.svg","response":1,"trial_type":"image-button-response","trial_index":85,"time_elapsed":464671,"internal_node_id":"0.0-4.0-0.39","subject_id":"61670b85f91be7f7618712b5","study_id":"6197b3f67c2b5cd3b6d9596a","session_id":"6197b5c6698a415f67ddc4cd","condition":"contingent","relevant_dimensions":["wings","pattern"],"bee_group":{"antennae":"X","wings":"2","pattern":"D","legs":"X"},"action":"avoid","summary":"bad-avoid","bonus":0.14},{"rt":1540.4000000953674,"stimulus":"\n                    <p><b>Action: <em>avoid</em></b></p>\n                    <p>This is the bee that you just saw.</p>\n                    <img src=\"bees-with-color/bee-A2SF.svg\" width=\"200\">\n                    <p><br>Your bonus pay is unchanged, and remains at $0.20.</p>\n            ","response":0,"trial_type":"html-button-response","trial_index":86,"time_elapsed":466213,"internal_node_id":"0.0-4.0-1.39","subject_id":"61670b85f91be7f7618712b5","study_id":"6197b3f67c2b5cd3b6d9596a","session_id":"6197b5c6698a415f67ddc4cd","condition":"contingent","relevant_dimensions":["wings","pattern"],"bee_group":{"antennae":"X","wings":"2","pattern":"D","legs":"X"},"bonus":0.14},{"rt":1272.2000000476837,"stimulus":"bees-with-color/bee-A2SM.svg","response":1,"trial_type":"image-button-response","trial_index":87,"time_elapsed":467487,"internal_node_id":"0.0-4.0-0.40","subject_id":"61670b85f91be7f7618712b5","study_id":"6197b3f67c2b5cd3b6d9596a","session_id":"6197b5c6698a415f67ddc4cd","condition":"contingent","relevant_dimensions":["wings","pattern"],"bee_group":{"antennae":"X","wings":"2","pattern":"D","legs":"X"},"action":"avoid","summary":"bad-avoid","bonus":0.14},{"rt":2312.1999999284744,"stimulus":"\n                    <p><b>Action: <em>avoid</em></b></p>\n                    <p>This is the bee that you just saw.</p>\n                    <img src=\"bees-with-color/bee-A2SM.svg\" width=\"200\">\n                    <p><br>Your bonus pay is unchanged, and remains at $0.20.</p>\n            ","response":0,"trial_type":"html-button-response","trial_index":88,"time_elapsed":469801,"internal_node_id":"0.0-4.0-1.40","subject_id":"61670b85f91be7f7618712b5","study_id":"6197b3f67c2b5cd3b6d9596a","session_id":"6197b5c6698a415f67ddc4cd","condition":"contingent","relevant_dimensions":["wings","pattern"],"bee_group":{"antennae":"X","wings":"2","pattern":"D","legs":"X"},"bonus":0.14},{"rt":1187.7999999523163,"stimulus":"bees-with-color/bee-A1SM.svg","response":0,"trial_type":"image-button-response","trial_index":89,"time_elapsed":470991,"internal_node_id":"0.0-4.0-0.41","subject_id":"61670b85f91be7f7618712b5","study_id":"6197b3f67c2b5cd3b6d9596a","session_id":"6197b5c6698a415f67ddc4cd","condition":"contingent","relevant_dimensions":["wings","pattern"],"bee_group":{"antennae":"X","wings":"2","pattern":"D","legs":"X"},"action":"harvest","summary":"good-harvest","bonus":0.14},{"rt":1612.6000000238419,"stimulus":"\n                    <p><b>Action: <em>harvest</em></b></p>\n                    <p>This is the bee that you just saw.</p>\n                    <img src=\"bees-with-color/bee-A1SM.svg\" width=\"200\">\n                    <p><span class=\"greenText\"><b>Successful harvest!</b></span><br>Your pay has increased by $0.02. Your bonus pay is now $0.22.</p>\n            ","response":0,"trial_type":"html-button-response","trial_index":90,"time_elapsed":472606,"internal_node_id":"0.0-4.0-1.41","subject_id":"61670b85f91be7f7618712b5","study_id":"6197b3f67c2b5cd3b6d9596a","session_id":"6197b5c6698a415f67ddc4cd","condition":"contingent","relevant_dimensions":["wings","pattern"],"bee_group":{"antennae":"X","wings":"2","pattern":"D","legs":"X"},"bonus":0.14},{"rt":1699.2000000476837,"stimulus":"bees-with-color/bee-B1DF.svg","response":0,"trial_type":"image-button-response","trial_index":91,"time_elapsed":474308,"internal_node_id":"0.0-4.0-0.42","subject_id":"61670b85f91be7f7618712b5","study_id":"6197b3f67c2b5cd3b6d9596a","session_id":"6197b5c6698a415f67ddc4cd","condition":"contingent","relevant_dimensions":["wings","pattern"],"bee_group":{"antennae":"X","wings":"2","pattern":"D","legs":"X"},"action":"harvest","summary":"good-harvest","bonus":0.14},{"rt":1771.7000000476837,"stimulus":"\n                    <p><b>Action: <em>harvest</em></b></p>\n                    <p>This is the bee that you just saw.</p>\n                    <img src=\"bees-with-color/bee-B1DF.svg\" width=\"200\">\n                    <p><span class=\"greenText\"><b>Successful harvest!</b></span><br>Your pay has increased by $0.02. Your bonus pay is now $0.24.</p>\n            ","response":0,"trial_type":"html-button-response","trial_index":92,"time_elapsed":476082,"internal_node_id":"0.0-4.0-1.42","subject_id":"61670b85f91be7f7618712b5","study_id":"6197b3f67c2b5cd3b6d9596a","session_id":"6197b5c6698a415f67ddc4cd","condition":"contingent","relevant_dimensions":["wings","pattern"],"bee_group":{"antennae":"X","wings":"2","pattern":"D","legs":"X"},"bonus":0.14},{"rt":2522.600000023842,"stimulus":"bees-with-color/bee-B2DF.svg","response":0,"trial_type":"image-button-response","trial_index":93,"time_elapsed":478607,"internal_node_id":"0.0-4.0-0.43","subject_id":"61670b85f91be7f7618712b5","study_id":"6197b3f67c2b5cd3b6d9596a","session_id":"6197b5c6698a415f67ddc4cd","condition":"contingent","relevant_dimensions":["wings","pattern"],"bee_group":{"antennae":"X","wings":"2","pattern":"D","legs":"X"},"action":"harvest","summary":"bad-harvest","bonus":0.14},{"rt":1559.5,"stimulus":"\n                    <p><b>Action: <em>harvest</em></b></p>\n                    <p>This is the bee that you just saw.</p>\n                    <img src=\"bees-with-color/bee-B2DF.svg\" width=\"200\">\n                    <p><span class=\"redText\">Bad choice, the bee was angry.</span><br><b>You have been stung!</b><br>Your pay has been decreased by $0.10. Your bonus pay is now $0.14.</p>\n            ","response":0,"trial_type":"html-button-response","trial_index":94,"time_elapsed":480169,"internal_node_id":"0.0-4.0-1.43","subject_id":"61670b85f91be7f7618712b5","study_id":"6197b3f67c2b5cd3b6d9596a","session_id":"6197b5c6698a415f67ddc4cd","condition":"contingent","relevant_dimensions":["wings","pattern"],"bee_group":{"antennae":"X","wings":"2","pattern":"D","legs":"X"},"bonus":0.14},{"rt":1095.2999999523163,"stimulus":"bees-with-color/bee-B2DM.svg","response":1,"trial_type":"image-button-response","trial_index":95,"time_elapsed":481266,"internal_node_id":"0.0-4.0-0.44","subject_id":"61670b85f91be7f7618712b5","study_id":"6197b3f67c2b5cd3b6d9596a","session_id":"6197b5c6698a415f67ddc4cd","condition":"contingent","relevant_dimensions":["wings","pattern"],"bee_group":{"antennae":"X","wings":"2","pattern":"D","legs":"X"},"action":"avoid","summary":"good-avoid","bonus":0.14},{"rt":1463,"stimulus":"\n                    <p><b>Action: <em>avoid</em></b></p>\n                    <p>This is the bee that you just saw.</p>\n                    <img src=\"bees-with-color/bee-B2DM.svg\" width=\"200\">\n                    <p><br>Your bonus pay is unchanged, and remains at $0.14.</p>\n            ","response":0,"trial_type":"html-button-response","trial_index":96,"time_elapsed":482731,"internal_node_id":"0.0-4.0-1.44","subject_id":"61670b85f91be7f7618712b5","study_id":"6197b3f67c2b5cd3b6d9596a","session_id":"6197b5c6698a415f67ddc4cd","condition":"contingent","relevant_dimensions":["wings","pattern"],"bee_group":{"antennae":"X","wings":"2","pattern":"D","legs":"X"},"bonus":0.14},{"rt":1161.6999999284744,"stimulus":"bees-with-color/bee-B1SM.svg","response":1,"trial_type":"image-button-response","trial_index":97,"time_elapsed":483895,"internal_node_id":"0.0-4.0-0.45","subject_id":"61670b85f91be7f7618712b5","study_id":"6197b3f67c2b5cd3b6d9596a","session_id":"6197b5c6698a415f67ddc4cd","condition":"contingent","relevant_dimensions":["wings","pattern"],"bee_group":{"antennae":"X","wings":"2","pattern":"D","legs":"X"},"action":"avoid","summary":"bad-avoid","bonus":0.14},{"rt":1256.8000000715256,"stimulus":"\n                    <p><b>Action: <em>avoid</em></b></p>\n                    <p>This is the bee that you just saw.</p>\n                    <img src=\"bees-with-color/bee-B1SM.svg\" width=\"200\">\n                    <p><br>Your bonus pay is unchanged, and remains at $0.14.</p>\n            ","response":0,"trial_type":"html-button-response","trial_index":98,"time_elapsed":485154,"internal_node_id":"0.0-4.0-1.45","subject_id":"61670b85f91be7f7618712b5","study_id":"6197b3f67c2b5cd3b6d9596a","session_id":"6197b5c6698a415f67ddc4cd","condition":"contingent","relevant_dimensions":["wings","pattern"],"bee_group":{"antennae":"X","wings":"2","pattern":"D","legs":"X"},"bonus":0.14},{"rt":1266.3999999761581,"stimulus":"bees-with-color/bee-A1DM.svg","response":0,"trial_type":"image-button-response","trial_index":99,"time_elapsed":486423,"internal_node_id":"0.0-4.0-0.46","subject_id":"61670b85f91be7f7618712b5","study_id":"6197b3f67c2b5cd3b6d9596a","session_id":"6197b5c6698a415f67ddc4cd","condition":"contingent","relevant_dimensions":["wings","pattern"],"bee_group":{"antennae":"X","wings":"2","pattern":"D","legs":"X"},"action":"harvest","summary":"good-harvest","bonus":0.14},{"rt":1509.8999999761581,"stimulus":"\n                    <p><b>Action: <em>harvest</em></b></p>\n                    <p>This is the bee that you just saw.</p>\n                    <img src=\"bees-with-color/bee-A1DM.svg\" width=\"200\">\n                    <p><span class=\"greenText\"><b>Successful harvest!</b></span><br>Your pay has increased by $0.02. Your bonus pay is now $0.16.</p>\n            ","response":0,"trial_type":"html-button-response","trial_index":100,"time_elapsed":487935,"internal_node_id":"0.0-4.0-1.46","subject_id":"61670b85f91be7f7618712b5","study_id":"6197b3f67c2b5cd3b6d9596a","session_id":"6197b5c6698a415f67ddc4cd","condition":"contingent","relevant_dimensions":["wings","pattern"],"bee_group":{"antennae":"X","wings":"2","pattern":"D","legs":"X"},"bonus":0.14},{"rt":1303.1000000238419,"stimulus":"bees-with-color/bee-A1SF.svg","response":0,"trial_type":"image-button-response","trial_index":101,"time_elapsed":489240,"internal_node_id":"0.0-4.0-0.47","subject_id":"61670b85f91be7f7618712b5","study_id":"6197b3f67c2b5cd3b6d9596a","session_id":"6197b5c6698a415f67ddc4cd","condition":"contingent","relevant_dimensions":["wings","pattern"],"bee_group":{"antennae":"X","wings":"2","pattern":"D","legs":"X"},"action":"harvest","summary":"good-harvest","bonus":0.14},{"rt":1408.9000000953674,"stimulus":"\n                    <p><b>Action: <em>harvest</em></b></p>\n                    <p>This is the bee that you just saw.</p>\n                    <img src=\"bees-with-color/bee-A1SF.svg\" width=\"200\">\n                    <p><span class=\"greenText\"><b>Successful harvest!</b></span><br>Your pay has increased by $0.02. Your bonus pay is now $0.18.</p>\n            ","response":0,"trial_type":"html-button-response","trial_index":102,"time_elapsed":490651,"internal_node_id":"0.0-4.0-1.47","subject_id":"61670b85f91be7f7618712b5","study_id":"6197b3f67c2b5cd3b6d9596a","session_id":"6197b5c6698a415f67ddc4cd","condition":"contingent","relevant_dimensions":["wings","pattern"],"bee_group":{"antennae":"X","wings":"2","pattern":"D","legs":"X"},"bonus":0.14},{"rt":2675.2999999523163,"stimulus":"bees-with-color/bee-B2SM.svg","response":0,"trial_type":"image-button-response","trial_index":103,"time_elapsed":493329,"internal_node_id":"0.0-4.0-0.48","subject_id":"61670b85f91be7f7618712b5","study_id":"6197b3f67c2b5cd3b6d9596a","session_id":"6197b5c6698a415f67ddc4cd","condition":"contingent","relevant_dimensions":["wings","pattern"],"bee_group":{"antennae":"X","wings":"2","pattern":"D","legs":"X"},"action":"harvest","summary":"good-harvest","bonus":0.14},{"rt":1463.8999999761581,"stimulus":"\n                    <p><b>Action: <em>harvest</em></b></p>\n                    <p>This is the bee that you just saw.</p>\n                    <img src=\"bees-with-color/bee-B2SM.svg\" width=\"200\">\n                    <p><span class=\"greenText\"><b>Successful harvest!</b></span><br>Your pay has increased by $0.02. Your bonus pay is now $0.20.</p>\n            ","response":0,"trial_type":"html-button-response","trial_index":104,"time_elapsed":494795,"internal_node_id":"0.0-4.0-1.48","subject_id":"61670b85f91be7f7618712b5","study_id":"6197b3f67c2b5cd3b6d9596a","session_id":"6197b5c6698a415f67ddc4cd","condition":"contingent","relevant_dimensions":["wings","pattern"],"bee_group":{"antennae":"X","wings":"2","pattern":"D","legs":"X"},"bonus":0.14},{"rt":2306.6999999284744,"stimulus":"bees-with-color/bee-A2DM.svg","response":0,"trial_type":"image-button-response","trial_index":105,"time_elapsed":497104,"internal_node_id":"0.0-4.0-0.49","subject_id":"61670b85f91be7f7618712b5","study_id":"6197b3f67c2b5cd3b6d9596a","session_id":"6197b5c6698a415f67ddc4cd","condition":"contingent","relevant_dimensions":["wings","pattern"],"bee_group":{"antennae":"X","wings":"2","pattern":"D","legs":"X"},"action":"harvest","summary":"bad-harvest","bonus":0.14},{"rt":1546.7999999523163,"stimulus":"\n                    <p><b>Action: <em>harvest</em></b></p>\n                    <p>This is the bee that you just saw.</p>\n                    <img src=\"bees-with-color/bee-A2DM.svg\" width=\"200\">\n                    <p><span class=\"redText\">Bad choice, the bee was angry.</span><br><b>You have been stung!</b><br>Your pay has been decreased by $0.10. Your bonus pay is now $0.10.</p>\n            ","response":0,"trial_type":"html-button-response","trial_index":106,"time_elapsed":498653,"internal_node_id":"0.0-4.0-1.49","subject_id":"61670b85f91be7f7618712b5","study_id":"6197b3f67c2b5cd3b6d9596a","session_id":"6197b5c6698a415f67ddc4cd","condition":"contingent","relevant_dimensions":["wings","pattern"],"bee_group":{"antennae":"X","wings":"2","pattern":"D","legs":"X"},"bonus":0.14},{"rt":5090,"stimulus":"bees-with-color/bee-B1SF.svg","response":0,"trial_type":"image-button-response","trial_index":107,"time_elapsed":503744,"internal_node_id":"0.0-4.0-0.50","subject_id":"61670b85f91be7f7618712b5","study_id":"6197b3f67c2b5cd3b6d9596a","session_id":"6197b5c6698a415f67ddc4cd","condition":"contingent","relevant_dimensions":["wings","pattern"],"bee_group":{"antennae":"X","wings":"2","pattern":"D","legs":"X"},"action":"harvest","summary":"good-harvest","bonus":0.14},{"rt":1426.1999999284744,"stimulus":"\n                    <p><b>Action: <em>harvest</em></b></p>\n                    <p>This is the bee that you just saw.</p>\n                    <img src=\"bees-with-color/bee-B1SF.svg\" width=\"200\">\n                    <p><span class=\"greenText\"><b>Successful harvest!</b></span><br>Your pay has increased by $0.02. Your bonus pay is now $0.12.</p>\n            ","response":0,"trial_type":"html-button-response","trial_index":108,"time_elapsed":505173,"internal_node_id":"0.0-4.0-1.50","subject_id":"61670b85f91be7f7618712b5","study_id":"6197b3f67c2b5cd3b6d9596a","session_id":"6197b5c6698a415f67ddc4cd","condition":"contingent","relevant_dimensions":["wings","pattern"],"bee_group":{"antennae":"X","wings":"2","pattern":"D","legs":"X"},"bonus":0.14},{"rt":1555.5,"stimulus":"bees-with-color/bee-A1SM.svg","response":0,"trial_type":"image-button-response","trial_index":109,"time_elapsed":506731,"internal_node_id":"0.0-4.0-0.51","subject_id":"61670b85f91be7f7618712b5","study_id":"6197b3f67c2b5cd3b6d9596a","session_id":"6197b5c6698a415f67ddc4cd","condition":"contingent","relevant_dimensions":["wings","pattern"],"bee_group":{"antennae":"X","wings":"2","pattern":"D","legs":"X"},"action":"harvest","summary":"good-harvest","bonus":0.14},{"rt":1685,"stimulus":"\n                    <p><b>Action: <em>harvest</em></b></p>\n                    <p>This is the bee that you just saw.</p>\n                    <img src=\"bees-with-color/bee-A1SM.svg\" width=\"200\">\n                    <p><span class=\"greenText\"><b>Successful harvest!</b></span><br>Your pay has increased by $0.02. Your bonus pay is now $0.14.</p>\n            ","response":0,"trial_type":"html-button-response","trial_index":110,"time_elapsed":508419,"internal_node_id":"0.0-4.0-1.51","subject_id":"61670b85f91be7f7618712b5","study_id":"6197b3f67c2b5cd3b6d9596a","session_id":"6197b5c6698a415f67ddc4cd","condition":"contingent","relevant_dimensions":["wings","pattern"],"bee_group":{"antennae":"X","wings":"2","pattern":"D","legs":"X"},"bonus":0.14},{"rt":9595.200000047684,"stimulus":"bees-with-color/bee-B2DM.svg","response":0,"trial_type":"image-button-response","trial_index":111,"time_elapsed":518016,"internal_node_id":"0.0-4.0-0.52","subject_id":"61670b85f91be7f7618712b5","study_id":"6197b3f67c2b5cd3b6d9596a","session_id":"6197b5c6698a415f67ddc4cd","condition":"contingent","relevant_dimensions":["wings","pattern"],"bee_group":{"antennae":"X","wings":"2","pattern":"D","legs":"X"},"action":"harvest","summary":"bad-harvest","bonus":0.14},{"rt":4091.600000023842,"stimulus":"\n                    <p><b>Action: <em>harvest</em></b></p>\n                    <p>This is the bee that you just saw.</p>\n                    <img src=\"bees-with-color/bee-B2DM.svg\" width=\"200\">\n                    <p><span class=\"redText\">Bad choice, the bee was angry.</span><br><b>You have been stung!</b><br>Your pay has been decreased by $0.10. Your bonus pay is now $0.04.</p>\n            ","response":0,"trial_type":"html-button-response","trial_index":112,"time_elapsed":522110,"internal_node_id":"0.0-4.0-1.52","subject_id":"61670b85f91be7f7618712b5","study_id":"6197b3f67c2b5cd3b6d9596a","session_id":"6197b5c6698a415f67ddc4cd","condition":"contingent","relevant_dimensions":["wings","pattern"],"bee_group":{"antennae":"X","wings":"2","pattern":"D","legs":"X"},"bonus":0.14},{"rt":2115.399999976158,"stimulus":"bees-with-color/bee-B2SF.svg","response":0,"trial_type":"image-button-response","trial_index":113,"time_elapsed":524228,"internal_node_id":"0.0-4.0-0.53","subject_id":"61670b85f91be7f7618712b5","study_id":"6197b3f67c2b5cd3b6d9596a","session_id":"6197b5c6698a415f67ddc4cd","condition":"contingent","relevant_dimensions":["wings","pattern"],"bee_group":{"antennae":"X","wings":"2","pattern":"D","legs":"X"},"action":"harvest","summary":"good-harvest","bonus":0.14},{"rt":1594,"stimulus":"\n                    <p><b>Action: <em>harvest</em></b></p>\n                    <p>This is the bee that you just saw.</p>\n                    <img src=\"bees-with-color/bee-B2SF.svg\" width=\"200\">\n                    <p><span class=\"greenText\"><b>Successful harvest!</b></span><br>Your pay has increased by $0.02. Your bonus pay is now $0.06.</p>\n            ","response":0,"trial_type":"html-button-response","trial_index":114,"time_elapsed":525825,"internal_node_id":"0.0-4.0-1.53","subject_id":"61670b85f91be7f7618712b5","study_id":"6197b3f67c2b5cd3b6d9596a","session_id":"6197b5c6698a415f67ddc4cd","condition":"contingent","relevant_dimensions":["wings","pattern"],"bee_group":{"antennae":"X","wings":"2","pattern":"D","legs":"X"},"bonus":0.14},{"rt":1447.8999999761581,"stimulus":"bees-with-color/bee-B1SM.svg","response":0,"trial_type":"image-button-response","trial_index":115,"time_elapsed":527275,"internal_node_id":"0.0-4.0-0.54","subject_id":"61670b85f91be7f7618712b5","study_id":"6197b3f67c2b5cd3b6d9596a","session_id":"6197b5c6698a415f67ddc4cd","condition":"contingent","relevant_dimensions":["wings","pattern"],"bee_group":{"antennae":"X","wings":"2","pattern":"D","legs":"X"},"action":"harvest","summary":"good-harvest","bonus":0.14},{"rt":1460.9000000953674,"stimulus":"\n                    <p><b>Action: <em>harvest</em></b></p>\n                    <p>This is the bee that you just saw.</p>\n                    <img src=\"bees-with-color/bee-B1SM.svg\" width=\"200\">\n                    <p><span class=\"greenText\"><b>Successful harvest!</b></span><br>Your pay has increased by $0.02. Your bonus pay is now $0.08.</p>\n            ","response":0,"trial_type":"html-button-response","trial_index":116,"time_elapsed":528738,"internal_node_id":"0.0-4.0-1.54","subject_id":"61670b85f91be7f7618712b5","study_id":"6197b3f67c2b5cd3b6d9596a","session_id":"6197b5c6698a415f67ddc4cd","condition":"contingent","relevant_dimensions":["wings","pattern"],"bee_group":{"antennae":"X","wings":"2","pattern":"D","legs":"X"},"bonus":0.14},{"rt":4399.399999976158,"stimulus":"bees-with-color/bee-B1DM.svg","response":1,"trial_type":"image-button-response","trial_index":117,"time_elapsed":533140,"internal_node_id":"0.0-4.0-0.55","subject_id":"61670b85f91be7f7618712b5","study_id":"6197b3f67c2b5cd3b6d9596a","session_id":"6197b5c6698a415f67ddc4cd","condition":"contingent","relevant_dimensions":["wings","pattern"],"bee_group":{"antennae":"X","wings":"2","pattern":"D","legs":"X"},"action":"avoid","summary":"bad-avoid","bonus":0.14},{"rt":2154.3000000715256,"stimulus":"\n                    <p><b>Action: <em>avoid</em></b></p>\n                    <p>This is the bee that you just saw.</p>\n                    <img src=\"bees-with-color/bee-B1DM.svg\" width=\"200\">\n                    <p><br>Your bonus pay is unchanged, and remains at $0.08.</p>\n            ","response":0,"trial_type":"html-button-response","trial_index":118,"time_elapsed":535297,"internal_node_id":"0.0-4.0-1.55","subject_id":"61670b85f91be7f7618712b5","study_id":"6197b3f67c2b5cd3b6d9596a","session_id":"6197b5c6698a415f67ddc4cd","condition":"contingent","relevant_dimensions":["wings","pattern"],"bee_group":{"antennae":"X","wings":"2","pattern":"D","legs":"X"},"bonus":0.14},{"rt":1412.8000000715256,"stimulus":"bees-with-color/bee-A1DM.svg","response":1,"trial_type":"image-button-response","trial_index":119,"time_elapsed":536712,"internal_node_id":"0.0-4.0-0.56","subject_id":"61670b85f91be7f7618712b5","study_id":"6197b3f67c2b5cd3b6d9596a","session_id":"6197b5c6698a415f67ddc4cd","condition":"contingent","relevant_dimensions":["wings","pattern"],"bee_group":{"antennae":"X","wings":"2","pattern":"D","legs":"X"},"action":"avoid","summary":"bad-avoid","bonus":0.14},{"rt":1472.1000000238419,"stimulus":"\n                    <p><b>Action: <em>avoid</em></b></p>\n                    <p>This is the bee that you just saw.</p>\n                    <img src=\"bees-with-color/bee-A1DM.svg\" width=\"200\">\n                    <p><br>Your bonus pay is unchanged, and remains at $0.08.</p>\n            ","response":0,"trial_type":"html-button-response","trial_index":120,"time_elapsed":538186,"internal_node_id":"0.0-4.0-1.56","subject_id":"61670b85f91be7f7618712b5","study_id":"6197b3f67c2b5cd3b6d9596a","session_id":"6197b5c6698a415f67ddc4cd","condition":"contingent","relevant_dimensions":["wings","pattern"],"bee_group":{"antennae":"X","wings":"2","pattern":"D","legs":"X"},"bonus":0.14},{"rt":1490.8000000715256,"stimulus":"bees-with-color/bee-A2DF.svg","response":0,"trial_type":"image-button-response","trial_index":121,"time_elapsed":539679,"internal_node_id":"0.0-4.0-0.57","subject_id":"61670b85f91be7f7618712b5","study_id":"6197b3f67c2b5cd3b6d9596a","session_id":"6197b5c6698a415f67ddc4cd","condition":"contingent","relevant_dimensions":["wings","pattern"],"bee_group":{"antennae":"X","wings":"2","pattern":"D","legs":"X"},"action":"harvest","summary":"bad-harvest","bonus":0.14},{"rt":1848.8999999761581,"stimulus":"\n                    <p><b>Action: <em>harvest</em></b></p>\n                    <p>This is the bee that you just saw.</p>\n                    <img src=\"bees-with-color/bee-A2DF.svg\" width=\"200\">\n                    <p><span class=\"redText\">Bad choice, the bee was angry.</span><br><b>You have been stung!</b><br>Your pay has been decreased by $0.10. Your bonus pay is now $0.00.</p>\n            ","response":0,"trial_type":"html-button-response","trial_index":122,"time_elapsed":541529,"internal_node_id":"0.0-4.0-1.57","subject_id":"61670b85f91be7f7618712b5","study_id":"6197b3f67c2b5cd3b6d9596a","session_id":"6197b5c6698a415f67ddc4cd","condition":"contingent","relevant_dimensions":["wings","pattern"],"bee_group":{"antennae":"X","wings":"2","pattern":"D","legs":"X"},"bonus":0.14},{"rt":4320.699999928474,"stimulus":"bees-with-color/bee-B1DF.svg","response":0,"trial_type":"image-button-response","trial_index":123,"time_elapsed":545852,"internal_node_id":"0.0-4.0-0.58","subject_id":"61670b85f91be7f7618712b5","study_id":"6197b3f67c2b5cd3b6d9596a","session_id":"6197b5c6698a415f67ddc4cd","condition":"contingent","relevant_dimensions":["wings","pattern"],"bee_group":{"antennae":"X","wings":"2","pattern":"D","legs":"X"},"action":"harvest","summary":"good-harvest","bonus":0.14},{"rt":4710.200000047684,"stimulus":"\n                    <p><b>Action: <em>harvest</em></b></p>\n                    <p>This is the bee that you just saw.</p>\n                    <img src=\"bees-with-color/bee-B1DF.svg\" width=\"200\">\n                    <p><span class=\"greenText\"><b>Successful harvest!</b></span><br>Your pay has increased by $0.02. Your bonus pay is now $0.02.</p>\n            ","response":0,"trial_type":"html-button-response","trial_index":124,"time_elapsed":550564,"internal_node_id":"0.0-4.0-1.58","subject_id":"61670b85f91be7f7618712b5","study_id":"6197b3f67c2b5cd3b6d9596a","session_id":"6197b5c6698a415f67ddc4cd","condition":"contingent","relevant_dimensions":["wings","pattern"],"bee_group":{"antennae":"X","wings":"2","pattern":"D","legs":"X"},"bonus":0.14},{"rt":3531.7999999523163,"stimulus":"bees-with-color/bee-A2SF.svg","response":0,"trial_type":"image-button-response","trial_index":125,"time_elapsed":554099,"internal_node_id":"0.0-4.0-0.59","subject_id":"61670b85f91be7f7618712b5","study_id":"6197b3f67c2b5cd3b6d9596a","session_id":"6197b5c6698a415f67ddc4cd","condition":"contingent","relevant_dimensions":["wings","pattern"],"bee_group":{"antennae":"X","wings":"2","pattern":"D","legs":"X"},"action":"harvest","summary":"good-harvest","bonus":0.14},{"rt":5172.799999952316,"stimulus":"\n                    <p><b>Action: <em>harvest</em></b></p>\n                    <p>This is the bee that you just saw.</p>\n                    <img src=\"bees-with-color/bee-A2SF.svg\" width=\"200\">\n                    <p><span class=\"greenText\"><b>Successful harvest!</b></span><br>Your pay has increased by $0.02. Your bonus pay is now $0.04.</p>\n            ","response":0,"trial_type":"html-button-response","trial_index":126,"time_elapsed":559273,"internal_node_id":"0.0-4.0-1.59","subject_id":"61670b85f91be7f7618712b5","study_id":"6197b3f67c2b5cd3b6d9596a","session_id":"6197b5c6698a415f67ddc4cd","condition":"contingent","relevant_dimensions":["wings","pattern"],"bee_group":{"antennae":"X","wings":"2","pattern":"D","legs":"X"},"bonus":0.14},{"rt":2029.5,"stimulus":"bees-with-color/bee-A1DF.svg","response":0,"trial_type":"image-button-response","trial_index":127,"time_elapsed":561305,"internal_node_id":"0.0-4.0-0.60","subject_id":"61670b85f91be7f7618712b5","study_id":"6197b3f67c2b5cd3b6d9596a","session_id":"6197b5c6698a415f67ddc4cd","condition":"contingent","relevant_dimensions":["wings","pattern"],"bee_group":{"antennae":"X","wings":"2","pattern":"D","legs":"X"},"action":"harvest","summary":"good-harvest","bonus":0.14},{"rt":1424.2000000476837,"stimulus":"\n                    <p><b>Action: <em>harvest</em></b></p>\n                    <p>This is the bee that you just saw.</p>\n                    <img src=\"bees-with-color/bee-A1DF.svg\" width=\"200\">\n                    <p><span class=\"greenText\"><b>Successful harvest!</b></span><br>Your pay has increased by $0.02. Your bonus pay is now $0.06.</p>\n            ","response":0,"trial_type":"html-button-response","trial_index":128,"time_elapsed":562732,"internal_node_id":"0.0-4.0-1.60","subject_id":"61670b85f91be7f7618712b5","study_id":"6197b3f67c2b5cd3b6d9596a","session_id":"6197b5c6698a415f67ddc4cd","condition":"contingent","relevant_dimensions":["wings","pattern"],"bee_group":{"antennae":"X","wings":"2","pattern":"D","legs":"X"},"bonus":0.14},{"rt":2267.8000000715256,"stimulus":"bees-with-color/bee-A1SF.svg","response":0,"trial_type":"image-button-response","trial_index":129,"time_elapsed":565002,"internal_node_id":"0.0-4.0-0.61","subject_id":"61670b85f91be7f7618712b5","study_id":"6197b3f67c2b5cd3b6d9596a","session_id":"6197b5c6698a415f67ddc4cd","condition":"contingent","relevant_dimensions":["wings","pattern"],"bee_group":{"antennae":"X","wings":"2","pattern":"D","legs":"X"},"action":"harvest","summary":"good-harvest","bonus":0.14},{"rt":1474.8999999761581,"stimulus":"\n                    <p><b>Action: <em>harvest</em></b></p>\n                    <p>This is the bee that you just saw.</p>\n                    <img src=\"bees-with-color/bee-A1SF.svg\" width=\"200\">\n                    <p><span class=\"greenText\"><b>Successful harvest!</b></span><br>Your pay has increased by $0.02. Your bonus pay is now $0.08.</p>\n            ","response":0,"trial_type":"html-button-response","trial_index":130,"time_elapsed":566480,"internal_node_id":"0.0-4.0-1.61","subject_id":"61670b85f91be7f7618712b5","study_id":"6197b3f67c2b5cd3b6d9596a","session_id":"6197b5c6698a415f67ddc4cd","condition":"contingent","relevant_dimensions":["wings","pattern"],"bee_group":{"antennae":"X","wings":"2","pattern":"D","legs":"X"},"bonus":0.14},{"rt":1613,"stimulus":"bees-with-color/bee-B2DF.svg","response":1,"trial_type":"image-button-response","trial_index":131,"time_elapsed":568095,"internal_node_id":"0.0-4.0-0.62","subject_id":"61670b85f91be7f7618712b5","study_id":"6197b3f67c2b5cd3b6d9596a","session_id":"6197b5c6698a415f67ddc4cd","condition":"contingent","relevant_dimensions":["wings","pattern"],"bee_group":{"antennae":"X","wings":"2","pattern":"D","legs":"X"},"action":"avoid","summary":"good-avoid","bonus":0.14},{"rt":1426.7000000476837,"stimulus":"\n                    <p><b>Action: <em>avoid</em></b></p>\n                    <p>This is the bee that you just saw.</p>\n                    <img src=\"bees-with-color/bee-B2DF.svg\" width=\"200\">\n                    <p><br>Your bonus pay is unchanged, and remains at $0.08.</p>\n            ","response":0,"trial_type":"html-button-response","trial_index":132,"time_elapsed":569524,"internal_node_id":"0.0-4.0-1.62","subject_id":"61670b85f91be7f7618712b5","study_id":"6197b3f67c2b5cd3b6d9596a","session_id":"6197b5c6698a415f67ddc4cd","condition":"contingent","relevant_dimensions":["wings","pattern"],"bee_group":{"antennae":"X","wings":"2","pattern":"D","legs":"X"},"bonus":0.14},{"rt":3938.5,"stimulus":"bees-with-color/bee-A2SM.svg","response":1,"trial_type":"image-button-response","trial_index":133,"time_elapsed":573464,"internal_node_id":"0.0-4.0-0.63","subject_id":"61670b85f91be7f7618712b5","study_id":"6197b3f67c2b5cd3b6d9596a","session_id":"6197b5c6698a415f67ddc4cd","condition":"contingent","relevant_dimensions":["wings","pattern"],"bee_group":{"antennae":"X","wings":"2","pattern":"D","legs":"X"},"action":"avoid","summary":"bad-avoid","bonus":0.14},{"rt":1908.2999999523163,"stimulus":"\n                    <p><b>Action: <em>avoid</em></b></p>\n                    <p>This is the bee that you just saw.</p>\n                    <img src=\"bees-with-color/bee-A2SM.svg\" width=\"200\">\n                    <p><br>Your bonus pay is unchanged, and remains at $0.08.</p>\n            ","response":0,"trial_type":"html-button-response","trial_index":134,"time_elapsed":575375,"internal_node_id":"0.0-4.0-1.63","subject_id":"61670b85f91be7f7618712b5","study_id":"6197b3f67c2b5cd3b6d9596a","session_id":"6197b5c6698a415f67ddc4cd","condition":"contingent","relevant_dimensions":["wings","pattern"],"bee_group":{"antennae":"X","wings":"2","pattern":"D","legs":"X"},"bonus":0.14},{"rt":7732.100000023842,"stimulus":"You have completed the first part of this experiment.<br><br>You will now begin a shorter second part, in which you will receive no feedback.<br>The same rules regarding bonus pay apply.<br><br>Press any key to begin.","response":" ","trial_type":"html-keyboard-response","trial_index":135,"time_elapsed":583110,"internal_node_id":"0.0-5.0","subject_id":"61670b85f91be7f7618712b5","study_id":"6197b3f67c2b5cd3b6d9596a","session_id":"6197b5c6698a415f67ddc4cd","condition":"contingent","relevant_dimensions":["wings","pattern"],"bee_group":{"antennae":"X","wings":"2","pattern":"D","legs":"X"},"bonus":0.14},{"rt":8192.400000095367,"stimulus":"bees-with-color/bee-A1DF.svg","response":0,"trial_type":"image-button-response","trial_index":136,"time_elapsed":591344,"internal_node_id":"0.0-6.0-0.0","subject_id":"61670b85f91be7f7618712b5","study_id":"6197b3f67c2b5cd3b6d9596a","session_id":"6197b5c6698a415f67ddc4cd","condition":"contingent","relevant_dimensions":["wings","pattern"],"bee_group":{"antennae":"X","wings":"2","pattern":"D","legs":"X"},"bonus":0.14},{"rt":1096,"stimulus":"bees-with-color/bee-A1SF.svg","response":0,"trial_type":"image-button-response","trial_index":137,"time_elapsed":592445,"internal_node_id":"0.0-6.0-0.1","subject_id":"61670b85f91be7f7618712b5","study_id":"6197b3f67c2b5cd3b6d9596a","session_id":"6197b5c6698a415f67ddc4cd","condition":"contingent","relevant_dimensions":["wings","pattern"],"bee_group":{"antennae":"X","wings":"2","pattern":"D","legs":"X"},"bonus":0.14},{"rt":3114.7999999523163,"stimulus":"bees-with-color/bee-A1SM.svg","response":0,"trial_type":"image-button-response","trial_index":138,"time_elapsed":595567,"internal_node_id":"0.0-6.0-0.2","subject_id":"61670b85f91be7f7618712b5","study_id":"6197b3f67c2b5cd3b6d9596a","session_id":"6197b5c6698a415f67ddc4cd","condition":"contingent","relevant_dimensions":["wings","pattern"],"bee_group":{"antennae":"X","wings":"2","pattern":"D","legs":"X"},"bonus":0.14},{"rt":1760.2999999523163,"stimulus":"bees-with-color/bee-A2SM.svg","response":1,"trial_type":"image-button-response","trial_index":139,"time_elapsed":597331,"internal_node_id":"0.0-6.0-0.3","subject_id":"61670b85f91be7f7618712b5","study_id":"6197b3f67c2b5cd3b6d9596a","session_id":"6197b5c6698a415f67ddc4cd","condition":"contingent","relevant_dimensions":["wings","pattern"],"bee_group":{"antennae":"X","wings":"2","pattern":"D","legs":"X"},"bonus":0.14},{"rt":2974.5999999046326,"stimulus":"bees-with-color/bee-A2DF.svg","response":1,"trial_type":"image-button-response","trial_index":140,"time_elapsed":600309,"internal_node_id":"0.0-6.0-0.4","subject_id":"61670b85f91be7f7618712b5","study_id":"6197b3f67c2b5cd3b6d9596a","session_id":"6197b5c6698a415f67ddc4cd","condition":"contingent","relevant_dimensions":["wings","pattern"],"bee_group":{"antennae":"X","wings":"2","pattern":"D","legs":"X"},"bonus":0.14},{"rt":1284.8000000715256,"stimulus":"bees-with-color/bee-B1DF.svg","response":0,"trial_type":"image-button-response","trial_index":141,"time_elapsed":601598,"internal_node_id":"0.0-6.0-0.5","subject_id":"61670b85f91be7f7618712b5","study_id":"6197b3f67c2b5cd3b6d9596a","session_id":"6197b5c6698a415f67ddc4cd","condition":"contingent","relevant_dimensions":["wings","pattern"],"bee_group":{"antennae":"X","wings":"2","pattern":"D","legs":"X"},"bonus":0.14},{"rt":1806.3999999761581,"stimulus":"bees-with-color/bee-B2SM.svg","response":1,"trial_type":"image-button-response","trial_index":142,"time_elapsed":603407,"internal_node_id":"0.0-6.0-0.6","subject_id":"61670b85f91be7f7618712b5","study_id":"6197b3f67c2b5cd3b6d9596a","session_id":"6197b5c6698a415f67ddc4cd","condition":"contingent","relevant_dimensions":["wings","pattern"],"bee_group":{"antennae":"X","wings":"2","pattern":"D","legs":"X"},"bonus":0.14},{"rt":3100.3000000715256,"stimulus":"bees-with-color/bee-B2DM.svg","response":1,"trial_type":"image-button-response","trial_index":143,"time_elapsed":606512,"internal_node_id":"0.0-6.0-0.7","subject_id":"61670b85f91be7f7618712b5","study_id":"6197b3f67c2b5cd3b6d9596a","session_id":"6197b5c6698a415f67ddc4cd","condition":"contingent","relevant_dimensions":["wings","pattern"],"bee_group":{"antennae":"X","wings":"2","pattern":"D","legs":"X"},"bonus":0.14},{"rt":1122.6999999284744,"stimulus":"bees-with-color/bee-B2SF.svg","response":0,"trial_type":"image-button-response","trial_index":144,"time_elapsed":607638,"internal_node_id":"0.0-6.0-0.8","subject_id":"61670b85f91be7f7618712b5","study_id":"6197b3f67c2b5cd3b6d9596a","session_id":"6197b5c6698a415f67ddc4cd","condition":"contingent","relevant_dimensions":["wings","pattern"],"bee_group":{"antennae":"X","wings":"2","pattern":"D","legs":"X"},"bonus":0.14},{"rt":1375.2999999523163,"stimulus":"bees-with-color/bee-A1DM.svg","response":0,"trial_type":"image-button-response","trial_index":145,"time_elapsed":609016,"internal_node_id":"0.0-6.0-0.9","subject_id":"61670b85f91be7f7618712b5","study_id":"6197b3f67c2b5cd3b6d9596a","session_id":"6197b5c6698a415f67ddc4cd","condition":"contingent","relevant_dimensions":["wings","pattern"],"bee_group":{"antennae":"X","wings":"2","pattern":"D","legs":"X"},"bonus":0.14},{"rt":1156.1000000238419,"stimulus":"bees-with-color/bee-A2DM.svg","response":1,"trial_type":"image-button-response","trial_index":146,"time_elapsed":610175,"internal_node_id":"0.0-6.0-0.10","subject_id":"61670b85f91be7f7618712b5","study_id":"6197b3f67c2b5cd3b6d9596a","session_id":"6197b5c6698a415f67ddc4cd","condition":"contingent","relevant_dimensions":["wings","pattern"],"bee_group":{"antennae":"X","wings":"2","pattern":"D","legs":"X"},"bonus":0.14},{"rt":915.6000000238419,"stimulus":"bees-with-color/bee-B1SF.svg","response":0,"trial_type":"image-button-response","trial_index":147,"time_elapsed":611094,"internal_node_id":"0.0-6.0-0.11","subject_id":"61670b85f91be7f7618712b5","study_id":"6197b3f67c2b5cd3b6d9596a","session_id":"6197b5c6698a415f67ddc4cd","condition":"contingent","relevant_dimensions":["wings","pattern"],"bee_group":{"antennae":"X","wings":"2","pattern":"D","legs":"X"},"bonus":0.14},{"rt":1793.2000000476837,"stimulus":"bees-with-color/bee-B1DM.svg","response":1,"trial_type":"image-button-response","trial_index":148,"time_elapsed":612890,"internal_node_id":"0.0-6.0-0.12","subject_id":"61670b85f91be7f7618712b5","study_id":"6197b3f67c2b5cd3b6d9596a","session_id":"6197b5c6698a415f67ddc4cd","condition":"contingent","relevant_dimensions":["wings","pattern"],"bee_group":{"antennae":"X","wings":"2","pattern":"D","legs":"X"},"bonus":0.14},{"rt":1793.8999999761581,"stimulus":"bees-with-color/bee-B1SM.svg","response":0,"trial_type":"image-button-response","trial_index":149,"time_elapsed":614688,"internal_node_id":"0.0-6.0-0.13","subject_id":"61670b85f91be7f7618712b5","study_id":"6197b3f67c2b5cd3b6d9596a","session_id":"6197b5c6698a415f67ddc4cd","condition":"contingent","relevant_dimensions":["wings","pattern"],"bee_group":{"antennae":"X","wings":"2","pattern":"D","legs":"X"},"bonus":0.14},{"rt":1884.6000000238419,"stimulus":"bees-with-color/bee-A2SF.svg","response":1,"trial_type":"image-button-response","trial_index":150,"time_elapsed":616575,"internal_node_id":"0.0-6.0-0.14","subject_id":"61670b85f91be7f7618712b5","study_id":"6197b3f67c2b5cd3b6d9596a","session_id":"6197b5c6698a415f67ddc4cd","condition":"contingent","relevant_dimensions":["wings","pattern"],"bee_group":{"antennae":"X","wings":"2","pattern":"D","legs":"X"},"bonus":0.14},{"rt":2346.399999976158,"stimulus":"bees-with-color/bee-B2DF.svg","response":0,"trial_type":"image-button-response","trial_index":151,"time_elapsed":618924,"internal_node_id":"0.0-6.0-0.15","subject_id":"61670b85f91be7f7618712b5","study_id":"6197b3f67c2b5cd3b6d9596a","session_id":"6197b5c6698a415f67ddc4cd","condition":"contingent","relevant_dimensions":["wings","pattern"],"bee_group":{"antennae":"X","wings":"2","pattern":"D","legs":"X"},"bonus":0.14},{"rt":1304.8000000715256,"stimulus":"bees-with-color/bee-A1DM.svg","response":0,"trial_type":"image-button-response","trial_index":152,"time_elapsed":620232,"internal_node_id":"0.0-6.0-0.16","subject_id":"61670b85f91be7f7618712b5","study_id":"6197b3f67c2b5cd3b6d9596a","session_id":"6197b5c6698a415f67ddc4cd","condition":"contingent","relevant_dimensions":["wings","pattern"],"bee_group":{"antennae":"X","wings":"2","pattern":"D","legs":"X"},"bonus":0.14},{"rt":1289.3999999761581,"stimulus":"bees-with-color/bee-B2SM.svg","response":1,"trial_type":"image-button-response","trial_index":153,"time_elapsed":621524,"internal_node_id":"0.0-6.0-0.17","subject_id":"61670b85f91be7f7618712b5","study_id":"6197b3f67c2b5cd3b6d9596a","session_id":"6197b5c6698a415f67ddc4cd","condition":"contingent","relevant_dimensions":["wings","pattern"],"bee_group":{"antennae":"X","wings":"2","pattern":"D","legs":"X"},"bonus":0.14},{"rt":1490.7999999523163,"stimulus":"bees-with-color/bee-A2DM.svg","response":0,"trial_type":"image-button-response","trial_index":154,"time_elapsed":623017,"internal_node_id":"0.0-6.0-0.18","subject_id":"61670b85f91be7f7618712b5","study_id":"6197b3f67c2b5cd3b6d9596a","session_id":"6197b5c6698a415f67ddc4cd","condition":"contingent","relevant_dimensions":["wings","pattern"],"bee_group":{"antennae":"X","wings":"2","pattern":"D","legs":"X"},"bonus":0.14},{"rt":869.2000000476837,"stimulus":"bees-with-color/bee-A2DF.svg","response":0,"trial_type":"image-button-response","trial_index":155,"time_elapsed":623889,"internal_node_id":"0.0-6.0-0.19","subject_id":"61670b85f91be7f7618712b5","study_id":"6197b3f67c2b5cd3b6d9596a","session_id":"6197b5c6698a415f67ddc4cd","condition":"contingent","relevant_dimensions":["wings","pattern"],"bee_group":{"antennae":"X","wings":"2","pattern":"D","legs":"X"},"bonus":0.14},{"rt":1391.8999999761581,"stimulus":"bees-with-color/bee-B1DF.svg","response":0,"trial_type":"image-button-response","trial_index":156,"time_elapsed":625284,"internal_node_id":"0.0-6.0-0.20","subject_id":"61670b85f91be7f7618712b5","study_id":"6197b3f67c2b5cd3b6d9596a","session_id":"6197b5c6698a415f67ddc4cd","condition":"contingent","relevant_dimensions":["wings","pattern"],"bee_group":{"antennae":"X","wings":"2","pattern":"D","legs":"X"},"bonus":0.14},{"rt":1749.3999999761581,"stimulus":"bees-with-color/bee-A2SM.svg","response":1,"trial_type":"image-button-response","trial_index":157,"time_elapsed":627036,"internal_node_id":"0.0-6.0-0.21","subject_id":"61670b85f91be7f7618712b5","study_id":"6197b3f67c2b5cd3b6d9596a","session_id":"6197b5c6698a415f67ddc4cd","condition":"contingent","relevant_dimensions":["wings","pattern"],"bee_group":{"antennae":"X","wings":"2","pattern":"D","legs":"X"},"bonus":0.14},{"rt":1311.6000000238419,"stimulus":"bees-with-color/bee-A2SF.svg","response":1,"trial_type":"image-button-response","trial_index":158,"time_elapsed":628351,"internal_node_id":"0.0-6.0-0.22","subject_id":"61670b85f91be7f7618712b5","study_id":"6197b3f67c2b5cd3b6d9596a","session_id":"6197b5c6698a415f67ddc4cd","condition":"contingent","relevant_dimensions":["wings","pattern"],"bee_group":{"antennae":"X","wings":"2","pattern":"D","legs":"X"},"bonus":0.14},{"rt":1216.6000000238419,"stimulus":"bees-with-color/bee-A1SM.svg","response":0,"trial_type":"image-button-response","trial_index":159,"time_elapsed":629570,"internal_node_id":"0.0-6.0-0.23","subject_id":"61670b85f91be7f7618712b5","study_id":"6197b3f67c2b5cd3b6d9596a","session_id":"6197b5c6698a415f67ddc4cd","condition":"contingent","relevant_dimensions":["wings","pattern"],"bee_group":{"antennae":"X","wings":"2","pattern":"D","legs":"X"},"bonus":0.14},{"rt":1393,"stimulus":"bees-with-color/bee-A1SF.svg","response":0,"trial_type":"image-button-response","trial_index":160,"time_elapsed":630966,"internal_node_id":"0.0-6.0-0.24","subject_id":"61670b85f91be7f7618712b5","study_id":"6197b3f67c2b5cd3b6d9596a","session_id":"6197b5c6698a415f67ddc4cd","condition":"contingent","relevant_dimensions":["wings","pattern"],"bee_group":{"antennae":"X","wings":"2","pattern":"D","legs":"X"},"bonus":0.14},{"rt":1628.3999999761581,"stimulus":"bees-with-color/bee-B1SF.svg","response":0,"trial_type":"image-button-response","trial_index":161,"time_elapsed":632597,"internal_node_id":"0.0-6.0-0.25","subject_id":"61670b85f91be7f7618712b5","study_id":"6197b3f67c2b5cd3b6d9596a","session_id":"6197b5c6698a415f67ddc4cd","condition":"contingent","relevant_dimensions":["wings","pattern"],"bee_group":{"antennae":"X","wings":"2","pattern":"D","legs":"X"},"bonus":0.14},{"rt":1536.1000000238419,"stimulus":"bees-with-color/bee-A1DF.svg","response":0,"trial_type":"image-button-response","trial_index":162,"time_elapsed":634136,"internal_node_id":"0.0-6.0-0.26","subject_id":"61670b85f91be7f7618712b5","study_id":"6197b3f67c2b5cd3b6d9596a","session_id":"6197b5c6698a415f67ddc4cd","condition":"contingent","relevant_dimensions":["wings","pattern"],"bee_group":{"antennae":"X","wings":"2","pattern":"D","legs":"X"},"bonus":0.14},{"rt":1567.1000000238419,"stimulus":"bees-with-color/bee-B2DF.svg","response":1,"trial_type":"image-button-response","trial_index":163,"time_elapsed":635706,"internal_node_id":"0.0-6.0-0.27","subject_id":"61670b85f91be7f7618712b5","study_id":"6197b3f67c2b5cd3b6d9596a","session_id":"6197b5c6698a415f67ddc4cd","condition":"contingent","relevant_dimensions":["wings","pattern"],"bee_group":{"antennae":"X","wings":"2","pattern":"D","legs":"X"},"bonus":0.14},{"rt":807.3999999761581,"stimulus":"bees-with-color/bee-B2SF.svg","response":1,"trial_type":"image-button-response","trial_index":164,"time_elapsed":636516,"internal_node_id":"0.0-6.0-0.28","subject_id":"61670b85f91be7f7618712b5","study_id":"6197b3f67c2b5cd3b6d9596a","session_id":"6197b5c6698a415f67ddc4cd","condition":"contingent","relevant_dimensions":["wings","pattern"],"bee_group":{"antennae":"X","wings":"2","pattern":"D","legs":"X"},"bonus":0.14},{"rt":642.2000000476837,"stimulus":"bees-with-color/bee-B2DM.svg","response":1,"trial_type":"image-button-response","trial_index":165,"time_elapsed":637161,"internal_node_id":"0.0-6.0-0.29","subject_id":"61670b85f91be7f7618712b5","study_id":"6197b3f67c2b5cd3b6d9596a","session_id":"6197b5c6698a415f67ddc4cd","condition":"contingent","relevant_dimensions":["wings","pattern"],"bee_group":{"antennae":"X","wings":"2","pattern":"D","legs":"X"},"bonus":0.14},{"rt":1840.7999999523163,"stimulus":"bees-with-color/bee-B1DM.svg","response":0,"trial_type":"image-button-response","trial_index":166,"time_elapsed":639004,"internal_node_id":"0.0-6.0-0.30","subject_id":"61670b85f91be7f7618712b5","study_id":"6197b3f67c2b5cd3b6d9596a","session_id":"6197b5c6698a415f67ddc4cd","condition":"contingent","relevant_dimensions":["wings","pattern"],"bee_group":{"antennae":"X","wings":"2","pattern":"D","legs":"X"},"bonus":0.1