[{"success":true,"trial_type":"fullscreen","trial_index":0,"time_elapsed":39535,"internal_node_id":"0.0-0.0","subject_id":"5cd052fcd6d8dc0013f84e66","study_id":"6197b3f67c2b5cd3b6d9596a","session_id":"619be788dc48732320e94f6c","condition":"full-information","relevant_dimensions":["antennae","wings"],"bee_group":{"antennae":"B","wings":"1","pattern":"X","legs":"X"},"bonus":0.9000000000000012},{"success":true,"timeout":false,"failed_images":[],"failed_audio":[],"failed_video":[],"trial_type":"preload","trial_index":1,"time_elapsed":42496,"internal_node_id":"0.0-1.0","subject_id":"5cd052fcd6d8dc0013f84e66","study_id":"6197b3f67c2b5cd3b6d9596a","session_id":"619be788dc48732320e94f6c","condition":"full-information","relevant_dimensions":["antennae","wings"],"bee_group":{"antennae":"B","wings":"1","pattern":"X","legs":"X"},"bonus":0.9000000000000012},{"rt":1722,"stimulus":"Welcome! Press any key to begin.","response":" ","trial_type":"html-keyboard-response","trial_index":2,"time_elapsed":44221,"internal_node_id":"0.0-2.0","subject_id":"5cd052fcd6d8dc0013f84e66","study_id":"6197b3f67c2b5cd3b6d9596a","session_id":"619be788dc48732320e94f6c","condition":"full-information","relevant_dimensions":["antennae","wings"],"bee_group":{"antennae":"B","wings":"1","pattern":"X","legs":"X"},"bonus":0.9000000000000012},{"view_history":[{"page_index":0,"viewing_time":4165.200000017881},{"page_index":1,"viewing_time":16738.69999998808},{"page_index":2,"viewing_time":13213.300000011921},{"page_index":3,"viewing_time":11973.799999982119},{"page_index":4,"viewing_time":6450.100000023842},{"page_index":5,"viewing_time":7071.899999976158},{"page_index":6,"viewing_time":7847.200000017881},{"page_index":7,"viewing_time":4655.0999999940395},{"page_index":8,"viewing_time":2552.300000011921},{"page_index":9,"viewing_time":2684},{"page_index":10,"viewing_time":2334.5},{"page_index":11,"viewing_time":15078.299999982119},{"page_index":12,"viewing_time":9634},{"page_index":13,"viewing_time":3648},{"page_index":14,"viewing_time":3721.4000000059605}],"rt":111769.70000001788,"trial_type":"instructions","trial_index":3,"time_elapsed":155990,"internal_node_id":"0.0-3.0-0.0","subject_id":"5cd052fcd6d8dc0013f84e66","study_id":"6197b3f67c2b5cd3b6d9596a","session_id":"619be788dc48732320e94f6c","condition":"full-information","relevant_dimensions":["antennae","wings"],"bee_group":{"antennae":"B","wings":"1","pattern":"X","legs":"X"},"bonus":0.9000000000000012},{"rt":9869.700000017881,"response":{"Q0":["Two or six legs","Stripes or spots on body","Single or double wings","Antennae or no antennae"]},"question_order":[0],"trial_type":"survey-multi-select","trial_index":4,"time_elapsed":165884,"internal_node_id":"0.0-3.0-1.0","subject_id":"5cd052fcd6d8dc0013f84e66","study_id":"6197b3f67c2b5cd3b6d9596a","session_id":"619be788dc48732320e94f6c","condition":"full-information","relevant_dimensions":["antennae","wings"],"bee_group":{"antennae":"B","wings":"1","pattern":"X","legs":"X"},"correct":true,"bonus":0.9000000000000012},{"rt":16626.90000000596,"response":{"Q1":"No.","Q2":"Based on the four features of the bee.","Q3":"You learn if it was friendly or dangerous, but do not alter your bonus."},"question_order":[0,1,2],"trial_type":"survey-multi-choice","trial_index":5,"time_elapsed":182543,"internal_node_id":"0.0-3.0-2.0","subject_id":"5cd052fcd6d8dc0013f84e66","study_id":"6197b3f67c2b5cd3b6d9596a","session_id":"619be788dc48732320e94f6c","condition":"full-information","relevant_dimensions":["antennae","wings"],"bee_group":{"antennae":"B","wings":"1","pattern":"X","legs":"X"},"correct":true,"bonus":0.9000000000000012},{"rt":4223.9000000059605,"stimulus":"<p>Congrats, you got everything right<br>When you're ready, click the button below to continue to the experiment.</p>","response":0,"trial_type":"html-button-response","trial_index":6,"time_elapsed":186788,"internal_node_id":"0.0-3.0-3.0","subject_id":"5cd052fcd6d8dc0013f84e66","study_id":"6197b3f67c2b5cd3b6d9596a","session_id":"619be788dc48732320e94f6c","condition":"full-information","relevant_dimensions":["antennae","wings"],"bee_group":{"antennae":"B","wings":"1","pattern":"X","legs":"X"},"bonus":0.9000000000000012},{"rt":6441.100000023842,"stimulus":"bees-with-color/bee-A1DM.svg","response":0,"trial_type":"image-button-response","trial_index":7,"time_elapsed":193245,"internal_node_id":"0.0-4.0-0.0","subject_id":"5cd052fcd6d8dc0013f84e66","study_id":"6197b3f67c2b5cd3b6d9596a","session_id":"619be788dc48732320e94f6c","condition":"full-information","relevant_dimensions":["antennae","wings"],"bee_group":{"antennae":"B","wings":"1","pattern":"X","legs":"X"},"action":"harvest","summary":"good-harvest","bonus":0.9000000000000012},{"rt":9712.299999982119,"stimulus":"\n                    <p><b>Action: <em>harvest</em></b></p>\n                    <p>This is the bee that you just saw.</p>\n                    <img src=\"bees-with-color/bee-A1DM.svg\" width=\"200\">\n                    <p><span class=\"greenText\"><b>Successful harvest!</b></span><br>Your pay has increased by $0.02. Your bonus pay is now $0.56.</p>\n            ","response":0,"trial_type":"html-button-response","trial_index":8,"time_elapsed":202971,"internal_node_id":"0.0-4.0-1.0","subject_id":"5cd052fcd6d8dc0013f84e66","study_id":"6197b3f67c2b5cd3b6d9596a","session_id":"619be788dc48732320e94f6c","condition":"full-information","relevant_dimensions":["antennae","wings"],"bee_group":{"antennae":"B","wings":"1","pattern":"X","legs":"X"},"bonus":0.9000000000000012},{"rt":3910.0999999940395,"stimulus":"bees-with-color/bee-A2DM.svg","response":1,"trial_type":"image-button-response","trial_index":9,"time_elapsed":206893,"internal_node_id":"0.0-4.0-0.1","subject_id":"5cd052fcd6d8dc0013f84e66","study_id":"6197b3f67c2b5cd3b6d9596a","session_id":"619be788dc48732320e94f6c","condition":"full-information","relevant_dimensions":["antennae","wings"],"bee_group":{"antennae":"B","wings":"1","pattern":"X","legs":"X"},"action":"avoid","summary":"bad-avoid","bonus":0.9000000000000012},{"rt":13697.899999976158,"stimulus":"\n                    <p><b>Action: <em>avoid</em></b></p>\n                    <p>This is the bee that you just saw.</p>\n                    <img src=\"bees-with-color/bee-A2DM.svg\" width=\"200\">\n                    <p><span class=\"redText\">Bad choice,</span> the bee was friendly.<br>Your bonus pay is unchanged, and remains at $0.56.</p>\n            ","response":0,"trial_type":"html-button-response","trial_index":10,"time_elapsed":220599,"internal_node_id":"0.0-4.0-1.1","subject_id":"5cd052fcd6d8dc0013f84e66","study_id":"6197b3f67c2b5cd3b6d9596a","session_id":"619be788dc48732320e94f6c","condition":"full-information","relevant_dimensions":["antennae","wings"],"bee_group":{"antennae":"B","wings":"1","pattern":"X","legs":"X"},"bonus":0.9000000000000012},{"rt":2794.5999999940395,"stimulus":"bees-with-color/bee-A1SF.svg","response":1,"trial_type":"image-button-response","trial_index":11,"time_elapsed":223405,"internal_node_id":"0.0-4.0-0.2","subject_id":"5cd052fcd6d8dc0013f84e66","study_id":"6197b3f67c2b5cd3b6d9596a","session_id":"619be788dc48732320e94f6c","condition":"full-information","relevant_dimensions":["antennae","wings"],"bee_group":{"antennae":"B","wings":"1","pattern":"X","legs":"X"},"action":"avoid","summary":"bad-avoid","bonus":0.9000000000000012},{"rt":4109,"stimulus":"\n                    <p><b>Action: <em>avoid</em></b></p>\n                    <p>This is the bee that you just saw.</p>\n                    <img src=\"bees-with-color/bee-A1SF.svg\" width=\"200\">\n                    <p><span class=\"redText\">Bad choice,</span> the bee was friendly.<br>Your bonus pay is unchanged, and remains at $0.56.</p>\n            ","response":0,"trial_type":"html-button-response","trial_index":12,"time_elapsed":227522,"internal_node_id":"0.0-4.0-1.2","subject_id":"5cd052fcd6d8dc0013f84e66","study_id":"6197b3f67c2b5cd3b6d9596a","session_id":"619be788dc48732320e94f6c","condition":"full-information","relevant_dimensions":["antennae","wings"],"bee_group":{"antennae":"B","wings":"1","pattern":"X","legs":"X"},"bonus":0.9000000000000012},{"rt":2276,"stimulus":"bees-with-color/bee-A2SM.svg","response":0,"trial_type":"image-button-response","trial_index":13,"time_elapsed":229808,"internal_node_id":"0.0-4.0-0.3","subject_id":"5cd052fcd6d8dc0013f84e66","study_id":"6197b3f67c2b5cd3b6d9596a","session_id":"619be788dc48732320e94f6c","condition":"full-information","relevant_dimensions":["antennae","wings"],"bee_group":{"antennae":"B","wings":"1","pattern":"X","legs":"X"},"action":"harvest","summary":"good-harvest","bonus":0.9000000000000012},{"rt":6103,"stimulus":"\n                    <p><b>Action: <em>harvest</em></b></p>\n                    <p>This is the bee that you just saw.</p>\n                    <img src=\"bees-with-color/bee-A2SM.svg\" width=\"200\">\n                    <p><span class=\"greenText\"><b>Successful harvest!</b></span><br>Your pay has increased by $0.02. Your bonus pay is now $0.58.</p>\n            ","response":0,"trial_type":"html-button-response","trial_index":14,"time_elapsed":235920,"internal_node_id":"0.0-4.0-1.3","subject_id":"5cd052fcd6d8dc0013f84e66","study_id":"6197b3f67c2b5cd3b6d9596a","session_id":"619be788dc48732320e94f6c","condition":"full-information","relevant_dimensions":["antennae","wings"],"bee_group":{"antennae":"B","wings":"1","pattern":"X","legs":"X"},"bonus":0.9000000000000012},{"rt":2469.5999999940395,"stimulus":"bees-with-color/bee-B1SM.svg","response":0,"trial_type":"image-button-response","trial_index":15,"time_elapsed":238400,"internal_node_id":"0.0-4.0-0.4","subject_id":"5cd052fcd6d8dc0013f84e66","study_id":"6197b3f67c2b5cd3b6d9596a","session_id":"619be788dc48732320e94f6c","condition":"full-information","relevant_dimensions":["antennae","wings"],"bee_group":{"antennae":"B","wings":"1","pattern":"X","legs":"X"},"action":"harvest","summary":"bad-harvest","bonus":0.9000000000000012},{"rt":8552.800000011921,"stimulus":"\n                    <p><b>Action: <em>harvest</em></b></p>\n                    <p>This is the bee that you just saw.</p>\n                    <img src=\"bees-with-color/bee-B1SM.svg\" width=\"200\">\n                    <p><span class=\"redText\">Bad choice, the bee was angry.</span><br><b>You have been stung!</b><br>Your pay has been decreased by $0.10. Your bonus pay is now $0.48.</p>\n            ","response":0,"trial_type":"html-button-response","trial_index":16,"time_elapsed":246969,"internal_node_id":"0.0-4.0-1.4","subject_id":"5cd052fcd6d8dc0013f84e66","study_id":"6197b3f67c2b5cd3b6d9596a","session_id":"619be788dc48732320e94f6c","condition":"full-information","relevant_dimensions":["antennae","wings"],"bee_group":{"antennae":"B","wings":"1","pattern":"X","legs":"X"},"bonus":0.9000000000000012},{"rt":3394.5999999940395,"stimulus":"bees-with-color/bee-B1DM.svg","response":1,"trial_type":"image-button-response","trial_index":17,"time_elapsed":250374,"internal_node_id":"0.0-4.0-0.5","subject_id":"5cd052fcd6d8dc0013f84e66","study_id":"6197b3f67c2b5cd3b6d9596a","session_id":"619be788dc48732320e94f6c","condition":"full-information","relevant_dimensions":["antennae","wings"],"bee_group":{"antennae":"B","wings":"1","pattern":"X","legs":"X"},"action":"avoid","summary":"good-avoid","bonus":0.9000000000000012},{"rt":2181.2000000178814,"stimulus":"\n                    <p><b>Action: <em>avoid</em></b></p>\n                    <p>This is the bee that you just saw.</p>\n                    <img src=\"bees-with-color/bee-B1DM.svg\" width=\"200\">\n                    <p><span class=\"greenText\">Good choice!</span>  This bee would have stung you.<br>Your bonus pay is unchanged, and remains at $0.48.</p>\n            ","response":0,"trial_type":"html-button-response","trial_index":18,"time_elapsed":252563,"internal_node_id":"0.0-4.0-1.5","subject_id":"5cd052fcd6d8dc0013f84e66","study_id":"6197b3f67c2b5cd3b6d9596a","session_id":"619be788dc48732320e94f6c","condition":"full-information","relevant_dimensions":["antennae","wings"],"bee_group":{"antennae":"B","wings":"1","pattern":"X","legs":"X"},"bonus":0.9000000000000012},{"rt":1542.0999999940395,"stimulus":"bees-with-color/bee-B2DM.svg","response":0,"trial_type":"image-button-response","trial_index":19,"time_elapsed":254115,"internal_node_id":"0.0-4.0-0.6","subject_id":"5cd052fcd6d8dc0013f84e66","study_id":"6197b3f67c2b5cd3b6d9596a","session_id":"619be788dc48732320e94f6c","condition":"full-information","relevant_dimensions":["antennae","wings"],"bee_group":{"antennae":"B","wings":"1","pattern":"X","legs":"X"},"action":"harvest","summary":"good-harvest","bonus":0.9000000000000012},{"rt":1053.2999999821186,"stimulus":"\n                    <p><b>Action: <em>harvest</em></b></p>\n                    <p>This is the bee that you just saw.</p>\n                    <img src=\"bees-with-color/bee-B2DM.svg\" width=\"200\">\n                    <p><span class=\"greenText\"><b>Successful harvest!</b></span><br>Your pay has increased by $0.02. Your bonus pay is now $0.50.</p>\n            ","response":0,"trial_type":"html-button-response","trial_index":20,"time_elapsed":255175,"internal_node_id":"0.0-4.0-1.6","subject_id":"5cd052fcd6d8dc0013f84e66","study_id":"6197b3f67c2b5cd3b6d9596a","session_id":"619be788dc48732320e94f6c","condition":"full-information","relevant_dimensions":["antennae","wings"],"bee_group":{"antennae":"B","wings":"1","pattern":"X","legs":"X"},"bonus":0.9000000000000012},{"rt":4552.0999999940395,"stimulus":"bees-with-color/bee-A2DF.svg","response":1,"trial_type":"image-button-response","trial_index":21,"time_elapsed":259737,"internal_node_id":"0.0-4.0-0.7","subject_id":"5cd052fcd6d8dc0013f84e66","study_id":"6197b3f67c2b5cd3b6d9596a","session_id":"619be788dc48732320e94f6c","condition":"full-information","relevant_dimensions":["antennae","wings"],"bee_group":{"antennae":"B","wings":"1","pattern":"X","legs":"X"},"action":"avoid","summary":"bad-avoid","bonus":0.9000000000000012},{"rt":1242.7000000178814,"stimulus":"\n                    <p><b>Action: <em>avoid</em></b></p>\n                    <p>This is the bee that you just saw.</p>\n                    <img src=\"bees-with-color/bee-A2DF.svg\" width=\"200\">\n                    <p><span class=\"redText\">Bad choice,</span> the bee was friendly.<br>Your bonus pay is unchanged, and remains at $0.50.</p>\n            ","response":0,"trial_type":"html-button-response","trial_index":22,"time_elapsed":260989,"internal_node_id":"0.0-4.0-1.7","subject_id":"5cd052fcd6d8dc0013f84e66","study_id":"6197b3f67c2b5cd3b6d9596a","session_id":"619be788dc48732320e94f6c","condition":"full-information","relevant_dimensions":["antennae","wings"],"bee_group":{"antennae":"B","wings":"1","pattern":"X","legs":"X"},"bonus":0.9000000000000012},{"rt":3682.800000011921,"stimulus":"bees-with-color/bee-A1DF.svg","response":1,"trial_type":"image-button-response","trial_index":23,"time_elapsed":264684,"internal_node_id":"0.0-4.0-0.8","subject_id":"5cd052fcd6d8dc0013f84e66","study_id":"6197b3f67c2b5cd3b6d9596a","session_id":"619be788dc48732320e94f6c","condition":"full-information","relevant_dimensions":["antennae","wings"],"bee_group":{"antennae":"B","wings":"1","pattern":"X","legs":"X"},"action":"avoid","summary":"bad-avoid","bonus":0.9000000000000012},{"rt":8254.700000017881,"stimulus":"\n                    <p><b>Action: <em>avoid</em></b></p>\n                    <p>This is the bee that you just saw.</p>\n                    <img src=\"bees-with-color/bee-A1DF.svg\" width=\"200\">\n                    <p><span class=\"redText\">Bad choice,</span> the bee was friendly.<br>Your bonus pay is unchanged, and remains at $0.50.</p>\n            ","response":0,"trial_type":"html-button-response","trial_index":24,"time_elapsed":272948,"internal_node_id":"0.0-4.0-1.8","subject_id":"5cd052fcd6d8dc0013f84e66","study_id":"6197b3f67c2b5cd3b6d9596a","session_id":"619be788dc48732320e94f6c","condition":"full-information","relevant_dimensions":["antennae","wings"],"bee_group":{"antennae":"B","wings":"1","pattern":"X","legs":"X"},"bonus":0.9000000000000012},{"rt":2155.800000011921,"stimulus":"bees-with-color/bee-A1SM.svg","response":0,"trial_type":"image-button-response","trial_index":25,"time_elapsed":275114,"internal_node_id":"0.0-4.0-0.9","subject_id":"5cd052fcd6d8dc0013f84e66","study_id":"6197b3f67c2b5cd3b6d9596a","session_id":"619be788dc48732320e94f6c","condition":"full-information","relevant_dimensions":["antennae","wings"],"bee_group":{"antennae":"B","wings":"1","pattern":"X","legs":"X"},"action":"harvest","summary":"good-harvest","bonus":0.9000000000000012},{"rt":1772.4000000059605,"stimulus":"\n                    <p><b>Action: <em>harvest</em></b></p>\n                    <p>This is the bee that you just saw.</p>\n                    <img src=\"bees-with-color/bee-A1SM.svg\" width=\"200\">\n                    <p><span class=\"greenText\"><b>Successful harvest!</b></span><br>Your pay has increased by $0.02. Your bonus pay is now $0.52.</p>\n            ","response":0,"trial_type":"html-button-response","trial_index":26,"time_elapsed":276896,"internal_node_id":"0.0-4.0-1.9","subject_id":"5cd052fcd6d8dc0013f84e66","study_id":"6197b3f67c2b5cd3b6d9596a","session_id":"619be788dc48732320e94f6c","condition":"full-information","relevant_dimensions":["antennae","wings"],"bee_group":{"antennae":"B","wings":"1","pattern":"X","legs":"X"},"bonus":0.9000000000000012},{"rt":2158.5999999940395,"stimulus":"bees-with-color/bee-B1SF.svg","response":1,"trial_type":"image-button-response","trial_index":27,"time_elapsed":279064,"internal_node_id":"0.0-4.0-0.10","subject_id":"5cd052fcd6d8dc0013f84e66","study_id":"6197b3f67c2b5cd3b6d9596a","session_id":"619be788dc48732320e94f6c","condition":"full-information","relevant_dimensions":["antennae","wings"],"bee_group":{"antennae":"B","wings":"1","pattern":"X","legs":"X"},"action":"avoid","summary":"good-avoid","bonus":0.9000000000000012},{"rt":1601.8999999761581,"stimulus":"\n                    <p><b>Action: <em>avoid</em></b></p>\n                    <p>This is the bee that you just saw.</p>\n                    <img src=\"bees-with-color/bee-B1SF.svg\" width=\"200\">\n                    <p><span class=\"greenText\">Good choice!</span>  This bee would have stung you.<br>Your bonus pay is unchanged, and remains at $0.52.</p>\n            ","response":0,"trial_type":"html-button-response","trial_index":28,"time_elapsed":280674,"internal_node_id":"0.0-4.0-1.10","subject_id":"5cd052fcd6d8dc0013f84e66","study_id":"6197b3f67c2b5cd3b6d9596a","session_id":"619be788dc48732320e94f6c","condition":"full-information","relevant_dimensions":["antennae","wings"],"bee_group":{"antennae":"B","wings":"1","pattern":"X","legs":"X"},"bonus":0.9000000000000012},{"rt":1558.300000011921,"stimulus":"bees-with-color/bee-B1DF.svg","response":0,"trial_type":"image-button-response","trial_index":29,"time_elapsed":282240,"internal_node_id":"0.0-4.0-0.11","subject_id":"5cd052fcd6d8dc0013f84e66","study_id":"6197b3f67c2b5cd3b6d9596a","session_id":"619be788dc48732320e94f6c","condition":"full-information","relevant_dimensions":["antennae","wings"],"bee_group":{"antennae":"B","wings":"1","pattern":"X","legs":"X"},"action":"harvest","summary":"bad-harvest","bonus":0.9000000000000012},{"rt":952.5,"stimulus":"\n                    <p><b>Action: <em>harvest</em></b></p>\n                    <p>This is the bee that you just saw.</p>\n                    <img src=\"bees-with-color/bee-B1DF.svg\" width=\"200\">\n                    <p><span class=\"redText\">Bad choice, the bee was angry.</span><br><b>You have been stung!</b><br>Your pay has been decreased by $0.10. Your bonus pay is now $0.42.</p>\n            ","response":0,"trial_type":"html-button-response","trial_index":30,"time_elapsed":283203,"internal_node_id":"0.0-4.0-1.11","subject_id":"5cd052fcd6d8dc0013f84e66","study_id":"6197b3f67c2b5cd3b6d9596a","session_id":"619be788dc48732320e94f6c","condition":"full-information","relevant_dimensions":["antennae","wings"],"bee_group":{"antennae":"B","wings":"1","pattern":"X","legs":"X"},"bonus":0.9000000000000012},{"rt":1288.5999999940395,"stimulus":"bees-with-color/bee-B2DF.svg","response":0,"trial_type":"image-button-response","trial_index":31,"time_elapsed":284502,"internal_node_id":"0.0-4.0-0.12","subject_id":"5cd052fcd6d8dc0013f84e66","study_id":"6197b3f67c2b5cd3b6d9596a","session_id":"619be788dc48732320e94f6c","condition":"full-information","relevant_dimensions":["antennae","wings"],"bee_group":{"antennae":"B","wings":"1","pattern":"X","legs":"X"},"action":"harvest","summary":"good-harvest","bonus":0.9000000000000012},{"rt":1097.5,"stimulus":"\n                    <p><b>Action: <em>harvest</em></b></p>\n                    <p>This is the bee that you just saw.</p>\n                    <img src=\"bees-with-color/bee-B2DF.svg\" width=\"200\">\n                    <p><span class=\"greenText\"><b>Successful harvest!</b></span><br>Your pay has increased by $0.02. Your bonus pay is now $0.44.</p>\n            ","response":0,"trial_type":"html-button-response","trial_index":32,"time_elapsed":285609,"internal_node_id":"0.0-4.0-1.12","subject_id":"5cd052fcd6d8dc0013f84e66","study_id":"6197b3f67c2b5cd3b6d9596a","session_id":"619be788dc48732320e94f6c","condition":"full-information","relevant_dimensions":["antennae","wings"],"bee_group":{"antennae":"B","wings":"1","pattern":"X","legs":"X"},"bonus":0.9000000000000012},{"rt":2277.5999999940395,"stimulus":"bees-with-color/bee-B2SF.svg","response":0,"trial_type":"image-button-response","trial_index":33,"time_elapsed":287897,"internal_node_id":"0.0-4.0-0.13","subject_id":"5cd052fcd6d8dc0013f84e66","study_id":"6197b3f67c2b5cd3b6d9596a","session_id":"619be788dc48732320e94f6c","condition":"full-information","relevant_dimensions":["antennae","wings"],"bee_group":{"antennae":"B","wings":"1","pattern":"X","legs":"X"},"action":"harvest","summary":"good-harvest","bonus":0.9000000000000012},{"rt":1193.5999999940395,"stimulus":"\n                    <p><b>Action: <em>harvest</em></b></p>\n                    <p>This is the bee that you just saw.</p>\n                    <img src=\"bees-with-color/bee-B2SF.svg\" width=\"200\">\n                    <p><span class=\"greenText\"><b>Successful harvest!</b></span><br>Your pay has increased by $0.02. Your bonus pay is now $0.46.</p>\n            ","response":0,"trial_type":"html-button-response","trial_index":34,"time_elapsed":289100,"internal_node_id":"0.0-4.0-1.13","subject_id":"5cd052fcd6d8dc0013f84e66","study_id":"6197b3f67c2b5cd3b6d9596a","session_id":"619be788dc48732320e94f6c","condition":"full-information","relevant_dimensions":["antennae","wings"],"bee_group":{"antennae":"B","wings":"1","pattern":"X","legs":"X"},"bonus":0.9000000000000012},{"rt":4874.700000017881,"stimulus":"bees-with-color/bee-A2SF.svg","response":0,"trial_type":"image-button-response","trial_index":35,"time_elapsed":293984,"internal_node_id":"0.0-4.0-0.14","subject_id":"5cd052fcd6d8dc0013f84e66","study_id":"6197b3f67c2b5cd3b6d9596a","session_id":"619be788dc48732320e94f6c","condition":"full-information","relevant_dimensions":["antennae","wings"],"bee_group":{"antennae":"B","wings":"1","pattern":"X","legs":"X"},"action":"harvest","summary":"good-harvest","bonus":0.9000000000000012},{"rt":894.5,"stimulus":"\n                    <p><b>Action: <em>harvest</em></b></p>\n                    <p>This is the bee that you just saw.</p>\n                    <img src=\"bees-with-color/bee-A2SF.svg\" width=\"200\">\n                    <p><span class=\"greenText\"><b>Successful harvest!</b></span><br>Your pay has increased by $0.02. Your bonus pay is now $0.48.</p>\n            ","response":0,"trial_type":"html-button-response","trial_index":36,"time_elapsed":294886,"internal_node_id":"0.0-4.0-1.14","subject_id":"5cd052fcd6d8dc0013f84e66","study_id":"6197b3f67c2b5cd3b6d9596a","session_id":"619be788dc48732320e94f6c","condition":"full-information","relevant_dimensions":["antennae","wings"],"bee_group":{"antennae":"B","wings":"1","pattern":"X","legs":"X"},"bonus":0.9000000000000012},{"rt":2531.699999988079,"stimulus":"bees-with-color/bee-B2SM.svg","response":1,"trial_type":"image-button-response","trial_index":37,"time_elapsed":297427,"internal_node_id":"0.0-4.0-0.15","subject_id":"5cd052fcd6d8dc0013f84e66","study_id":"6197b3f67c2b5cd3b6d9596a","session_id":"619be788dc48732320e94f6c","condition":"full-information","relevant_dimensions":["antennae","wings"],"bee_group":{"antennae":"B","wings":"1","pattern":"X","legs":"X"},"action":"avoid","summary":"bad-avoid","bonus":0.9000000000000012},{"rt":1208.699999988079,"stimulus":"\n                    <p><b>Action: <em>avoid</em></b></p>\n                    <p>This is the bee that you just saw.</p>\n                    <img src=\"bees-with-color/bee-B2SM.svg\" width=\"200\">\n                    <p><span class=\"redText\">Bad choice,</span> the bee was friendly.<br>Your bonus pay is unchanged, and remains at $0.48.</p>\n            ","response":0,"trial_type":"html-button-response","trial_index":38,"time_elapsed":298642,"internal_node_id":"0.0-4.0-1.15","subject_id":"5cd052fcd6d8dc0013f84e66","study_id":"6197b3f67c2b5cd3b6d9596a","session_id":"619be788dc48732320e94f6c","condition":"full-information","relevant_dimensions":["antennae","wings"],"bee_group":{"antennae":"B","wings":"1","pattern":"X","legs":"X"},"bonus":0.9000000000000012},{"rt":1664.4000000059605,"stimulus":"bees-with-color/bee-B2SM.svg","response":0,"trial_type":"image-button-response","trial_index":39,"time_elapsed":300315,"internal_node_id":"0.0-4.0-0.16","subject_id":"5cd052fcd6d8dc0013f84e66","study_id":"6197b3f67c2b5cd3b6d9596a","session_id":"619be788dc48732320e94f6c","condition":"full-information","relevant_dimensions":["antennae","wings"],"bee_group":{"antennae":"B","wings":"1","pattern":"X","legs":"X"},"action":"harvest","summary":"good-harvest","bonus":0.9000000000000012},{"rt":883.3000000119209,"stimulus":"\n                    <p><b>Action: <em>harvest</em></b></p>\n                    <p>This is the bee that you just saw.</p>\n                    <img src=\"bees-with-color/bee-B2SM.svg\" width=\"200\">\n                    <p><span class=\"greenText\"><b>Successful harvest!</b></span><br>Your pay has increased by $0.02. Your bonus pay is now $0.50.</p>\n            ","response":0,"trial_type":"html-button-response","trial_index":40,"time_elapsed":301205,"internal_node_id":"0.0-4.0-1.16","subject_id":"5cd052fcd6d8dc0013f84e66","study_id":"6197b3f67c2b5cd3b6d9596a","session_id":"619be788dc48732320e94f6c","condition":"full-information","relevant_dimensions":["antennae","wings"],"bee_group":{"antennae":"B","wings":"1","pattern":"X","legs":"X"},"bonus":0.9000000000000012},{"rt":2554.0999999940395,"stimulus":"bees-with-color/bee-A2SF.svg","response":0,"trial_type":"image-button-response","trial_index":41,"time_elapsed":303764,"internal_node_id":"0.0-4.0-0.17","subject_id":"5cd052fcd6d8dc0013f84e66","study_id":"6197b3f67c2b5cd3b6d9596a","session_id":"619be788dc48732320e94f6c","condition":"full-information","relevant_dimensions":["antennae","wings"],"bee_group":{"antennae":"B","wings":"1","pattern":"X","legs":"X"},"action":"harvest","summary":"good-harvest","bonus":0.9000000000000012},{"rt":1295.9000000059605,"stimulus":"\n                    <p><b>Action: <em>harvest</em></b></p>\n                    <p>This is the bee that you just saw.</p>\n                    <img src=\"bees-with-color/bee-A2SF.svg\" width=\"200\">\n                    <p><span class=\"greenText\"><b>Successful harvest!</b></span><br>Your pay has increased by $0.02. Your bonus pay is now $0.52.</p>\n            ","response":0,"trial_type":"html-button-response","trial_index":42,"time_elapsed":305066,"internal_node_id":"0.0-4.0-1.17","subject_id":"5cd052fcd6d8dc0013f84e66","study_id":"6197b3f67c2b5cd3b6d9596a","session_id":"619be788dc48732320e94f6c","condition":"full-information","relevant_dimensions":["antennae","wings"],"bee_group":{"antennae":"B","wings":"1","pattern":"X","legs":"X"},"bonus":0.9000000000000012},{"rt":2517.5999999940395,"stimulus":"bees-with-color/bee-A1DM.svg","response":0,"trial_type":"image-button-response","trial_index":43,"time_elapsed":307592,"internal_node_id":"0.0-4.0-0.18","subject_id":"5cd052fcd6d8dc0013f84e66","study_id":"6197b3f67c2b5cd3b6d9596a","session_id":"619be788dc48732320e94f6c","condition":"full-information","relevant_dimensions":["antennae","wings"],"bee_group":{"antennae":"B","wings":"1","pattern":"X","legs":"X"},"action":"harvest","summary":"good-harvest","bonus":0.9000000000000012},{"rt":955.1000000238419,"stimulus":"\n                    <p><b>Action: <em>harvest</em></b></p>\n                    <p>This is the bee that you just saw.</p>\n                    <img src=\"bees-with-color/bee-A1DM.svg\" width=\"200\">\n                    <p><span class=\"greenText\"><b>Successful harvest!</b></span><br>Your pay has increased by $0.02. Your bonus pay is now $0.54.</p>\n            ","response":0,"trial_type":"html-button-response","trial_index":44,"time_elapsed":308555,"internal_node_id":"0.0-4.0-1.18","subject_id":"5cd052fcd6d8dc0013f84e66","study_id":"6197b3f67c2b5cd3b6d9596a","session_id":"619be788dc48732320e94f6c","condition":"full-information","relevant_dimensions":["antennae","wings"],"bee_group":{"antennae":"B","wings":"1","pattern":"X","legs":"X"},"bonus":0.9000000000000012},{"rt":1847.9000000059605,"stimulus":"bees-with-color/bee-A2SM.svg","response":1,"trial_type":"image-button-response","trial_index":45,"time_elapsed":310410,"internal_node_id":"0.0-4.0-0.19","subject_id":"5cd052fcd6d8dc0013f84e66","study_id":"6197b3f67c2b5cd3b6d9596a","session_id":"619be788dc48732320e94f6c","condition":"full-information","relevant_dimensions":["antennae","wings"],"bee_group":{"antennae":"B","wings":"1","pattern":"X","legs":"X"},"action":"avoid","summary":"bad-avoid","bonus":0.9000000000000012},{"rt":964.8999999761581,"stimulus":"\n                    <p><b>Action: <em>avoid</em></b></p>\n                    <p>This is the bee that you just saw.</p>\n                    <img src=\"bees-with-color/bee-A2SM.svg\" width=\"200\">\n                    <p><span class=\"redText\">Bad choice,</span> the bee was friendly.<br>Your bonus pay is unchanged, and remains at $0.54.</p>\n            ","response":0,"trial_type":"html-button-response","trial_index":46,"time_elapsed":311383,"internal_node_id":"0.0-4.0-1.19","subject_id":"5cd052fcd6d8dc0013f84e66","study_id":"6197b3f67c2b5cd3b6d9596a","session_id":"619be788dc48732320e94f6c","condition":"full-information","relevant_dimensions":["antennae","wings"],"bee_group":{"antennae":"B","wings":"1","pattern":"X","legs":"X"},"bonus":0.9000000000000012},{"rt":1701.5,"stimulus":"bees-with-color/bee-B2SF.svg","response":1,"trial_type":"image-button-response","trial_index":47,"time_elapsed":313093,"internal_node_id":"0.0-4.0-0.20","subject_id":"5cd052fcd6d8dc0013f84e66","study_id":"6197b3f67c2b5cd3b6d9596a","session_id":"619be788dc48732320e94f6c","condition":"full-information","relevant_dimensions":["antennae","wings"],"bee_group":{"antennae":"B","wings":"1","pattern":"X","legs":"X"},"action":"avoid","summary":"bad-avoid","bonus":0.9000000000000012},{"rt":846.1999999880791,"stimulus":"\n                    <p><b>Action: <em>avoid</em></b></p>\n                    <p>This is the bee that you just saw.</p>\n                    <img src=\"bees-with-color/bee-B2SF.svg\" width=\"200\">\n                    <p><span class=\"redText\">Bad choice,</span> the bee was friendly.<br>Your bonus pay is unchanged, and remains at $0.54.</p>\n            ","response":0,"trial_type":"html-button-response","trial_index":48,"time_elapsed":313946,"internal_node_id":"0.0-4.0-1.20","subject_id":"5cd052fcd6d8dc0013f84e66","study_id":"6197b3f67c2b5cd3b6d9596a","session_id":"619be788dc48732320e94f6c","condition":"full-information","relevant_dimensions":["antennae","wings"],"bee_group":{"antennae":"B","wings":"1","pattern":"X","legs":"X"},"bonus":0.9000000000000012},{"rt":1871,"stimulus":"bees-with-color/bee-B1SM.svg","response":1,"trial_type":"image-button-response","trial_index":49,"time_elapsed":315825,"internal_node_id":"0.0-4.0-0.21","subject_id":"5cd052fcd6d8dc0013f84e66","study_id":"6197b3f67c2b5cd3b6d9596a","session_id":"619be788dc48732320e94f6c","condition":"full-information","relevant_dimensions":["antennae","wings"],"bee_group":{"antennae":"B","wings":"1","pattern":"X","legs":"X"},"action":"avoid","summary":"good-avoid","bonus":0.9000000000000012},{"rt":835.8000000119209,"stimulus":"\n                    <p><b>Action: <em>avoid</em></b></p>\n                    <p>This is the bee that you just saw.</p>\n                    <img src=\"bees-with-color/bee-B1SM.svg\" width=\"200\">\n                    <p><span class=\"greenText\">Good choice!</span>  This bee would have stung you.<br>Your bonus pay is unchanged, and remains at $0.54.</p>\n            ","response":0,"trial_type":"html-button-response","trial_index":50,"time_elapsed":316666,"internal_node_id":"0.0-4.0-1.21","subject_id":"5cd052fcd6d8dc0013f84e66","study_id":"6197b3f67c2b5cd3b6d9596a","session_id":"619be788dc48732320e94f6c","condition":"full-information","relevant_dimensions":["antennae","wings"],"bee_group":{"antennae":"B","wings":"1","pattern":"X","legs":"X"},"bonus":0.9000000000000012},{"rt":1534,"stimulus":"bees-with-color/bee-B1SF.svg","response":0,"trial_type":"image-button-response","trial_index":51,"time_elapsed":318207,"internal_node_id":"0.0-4.0-0.22","subject_id":"5cd052fcd6d8dc0013f84e66","study_id":"6197b3f67c2b5cd3b6d9596a","session_id":"619be788dc48732320e94f6c","condition":"full-information","relevant_dimensions":["antennae","wings"],"bee_group":{"antennae":"B","wings":"1","pattern":"X","legs":"X"},"action":"harvest","summary":"bad-harvest","bonus":0.9000000000000012},{"rt":906.2999999821186,"stimulus":"\n                    <p><b>Action: <em>harvest</em></b></p>\n                    <p>This is the bee that you just saw.</p>\n                    <img src=\"bees-with-color/bee-B1SF.svg\" width=\"200\">\n                    <p><span class=\"redText\">Bad choice, the bee was angry.</span><br><b>You have been stung!</b><br>Your pay has been decreased by $0.10. Your bonus pay is now $0.44.</p>\n            ","response":0,"trial_type":"html-button-response","trial_index":52,"time_elapsed":319121,"internal_node_id":"0.0-4.0-1.22","subject_id":"5cd052fcd6d8dc0013f84e66","study_id":"6197b3f67c2b5cd3b6d9596a","session_id":"619be788dc48732320e94f6c","condition":"full-information","relevant_dimensions":["antennae","wings"],"bee_group":{"antennae":"B","wings":"1","pattern":"X","legs":"X"},"bonus":0.9000000000000012},{"rt":3752.699999988079,"stimulus":"bees-with-color/bee-A2DF.svg","response":0,"trial_type":"image-button-response","trial_index":53,"time_elapsed":322883,"internal_node_id":"0.0-4.0-0.23","subject_id":"5cd052fcd6d8dc0013f84e66","study_id":"6197b3f67c2b5cd3b6d9596a","session_id":"619be788dc48732320e94f6c","condition":"full-information","relevant_dimensions":["antennae","wings"],"bee_group":{"antennae":"B","wings":"1","pattern":"X","legs":"X"},"action":"harvest","summary":"good-harvest","bonus":0.9000000000000012},{"rt":845.5,"stimulus":"\n                    <p><b>Action: <em>harvest</em></b></p>\n                    <p>This is the bee that you just saw.</p>\n                    <img src=\"bees-with-color/bee-A2DF.svg\" width=\"200\">\n                    <p><span class=\"greenText\"><b>Successful harvest!</b></span><br>Your pay has increased by $0.02. Your bonus pay is now $0.46.</p>\n            ","response":0,"trial_type":"html-button-response","trial_index":54,"time_elapsed":323737,"internal_node_id":"0.0-4.0-1.23","subject_id":"5cd052fcd6d8dc0013f84e66","study_id":"6197b3f67c2b5cd3b6d9596a","session_id":"619be788dc48732320e94f6c","condition":"full-information","relevant_dimensions":["antennae","wings"],"bee_group":{"antennae":"B","wings":"1","pattern":"X","legs":"X"},"bonus":0.9000000000000012},{"rt":1697.5,"stimulus":"bees-with-color/bee-A1SF.svg","response":1,"trial_type":"image-button-response","trial_index":55,"time_elapsed":325446,"internal_node_id":"0.0-4.0-0.24","subject_id":"5cd052fcd6d8dc0013f84e66","study_id":"6197b3f67c2b5cd3b6d9596a","session_id":"619be788dc48732320e94f6c","condition":"full-information","relevant_dimensions":["antennae","wings"],"bee_group":{"antennae":"B","wings":"1","pattern":"X","legs":"X"},"action":"avoid","summary":"bad-avoid","bonus":0.9000000000000012},{"rt":713.5999999940395,"stimulus":"\n                    <p><b>Action: <em>avoid</em></b></p>\n                    <p>This is the bee that you just saw.</p>\n                    <img src=\"bees-with-color/bee-A1SF.svg\" width=\"200\">\n                    <p><span class=\"redText\">Bad choice,</span> the bee was friendly.<br>Your bonus pay is unchanged, and remains at $0.46.</p>\n            ","response":0,"trial_type":"html-button-response","trial_index":56,"time_elapsed":326168,"internal_node_id":"0.0-4.0-1.24","subject_id":"5cd052fcd6d8dc0013f84e66","study_id":"6197b3f67c2b5cd3b6d9596a","session_id":"619be788dc48732320e94f6c","condition":"full-information","relevant_dimensions":["antennae","wings"],"bee_group":{"antennae":"B","wings":"1","pattern":"X","legs":"X"},"bonus":0.9000000000000012},{"rt":1965.9000000059605,"stimulus":"bees-with-color/bee-B1DF.svg","response":1,"trial_type":"image-button-response","trial_index":57,"time_elapsed":328142,"internal_node_id":"0.0-4.0-0.25","subject_id":"5cd052fcd6d8dc0013f84e66","study_id":"6197b3f67c2b5cd3b6d9596a","session_id":"619be788dc48732320e94f6c","condition":"full-information","relevant_dimensions":["antennae","wings"],"bee_group":{"antennae":"B","wings":"1","pattern":"X","legs":"X"},"action":"avoid","summary":"good-avoid","bonus":0.9000000000000012},{"rt":2639.0999999940395,"stimulus":"\n                    <p><b>Action: <em>avoid</em></b></p>\n                    <p>This is the bee that you just saw.</p>\n                    <img src=\"bees-with-color/bee-B1DF.svg\" width=\"200\">\n                    <p><span class=\"greenText\">Good choice!</span>  This bee would have stung you.<br>Your bonus pay is unchanged, and remains at $0.46.</p>\n            ","response":0,"trial_type":"html-button-response","trial_index":58,"time_elapsed":330789,"internal_node_id":"0.0-4.0-1.25","subject_id":"5cd052fcd6d8dc0013f84e66","study_id":"6197b3f67c2b5cd3b6d9596a","session_id":"619be788dc48732320e94f6c","condition":"full-information","relevant_dimensions":["antennae","wings"],"bee_group":{"antennae":"B","wings":"1","pattern":"X","legs":"X"},"bonus":0.9000000000000012},{"rt":1218.8999999761581,"stimulus":"bees-with-color/bee-A2DM.svg","response":0,"trial_type":"image-button-response","trial_index":59,"time_elapsed":332017,"internal_node_id":"0.0-4.0-0.26","subject_id":"5cd052fcd6d8dc0013f84e66","study_id":"6197b3f67c2b5cd3b6d9596a","session_id":"619be788dc48732320e94f6c","condition":"full-information","relevant_dimensions":["antennae","wings"],"bee_group":{"antennae":"B","wings":"1","pattern":"X","legs":"X"},"action":"harvest","summary":"good-harvest","bonus":0.9000000000000012},{"rt":1039.199999988079,"stimulus":"\n                    <p><b>Action: <em>harvest</em></b></p>\n                    <p>This is the bee that you just saw.</p>\n                    <img src=\"bees-with-color/bee-A2DM.svg\" width=\"200\">\n                    <p><span class=\"greenText\"><b>Successful harvest!</b></span><br>Your pay has increased by $0.02. Your bonus pay is now $0.48.</p>\n            ","response":0,"trial_type":"html-button-response","trial_index":60,"time_elapsed":333064,"internal_node_id":"0.0-4.0-1.26","subject_id":"5cd052fcd6d8dc0013f84e66","study_id":"6197b3f67c2b5cd3b6d9596a","session_id":"619be788dc48732320e94f6c","condition":"full-information","relevant_dimensions":["antennae","wings"],"bee_group":{"antennae":"B","wings":"1","pattern":"X","legs":"X"},"bonus":0.9000000000000012},{"rt":1727.1000000238419,"stimulus":"bees-with-color/bee-A1DF.svg","response":0,"trial_type":"image-button-response","trial_index":61,"time_elapsed":334799,"internal_node_id":"0.0-4.0-0.27","subject_id":"5cd052fcd6d8dc0013f84e66","study_id":"6197b3f67c2b5cd3b6d9596a","session_id":"619be788dc48732320e94f6c","condition":"full-information","relevant_dimensions":["antennae","wings"],"bee_group":{"antennae":"B","wings":"1","pattern":"X","legs":"X"},"action":"harvest","summary":"good-harvest","bonus":0.9000000000000012},{"rt":748,"stimulus":"\n                    <p><b>Action: <em>harvest</em></b></p>\n                    <p>This is the bee that you just saw.</p>\n                    <img src=\"bees-with-color/bee-A1DF.svg\" width=\"200\">\n                    <p><span class=\"greenText\"><b>Successful harvest!</b></span><br>Your pay has increased by $0.02. Your bonus pay is now $0.50.</p>\n            ","response":0,"trial_type":"html-button-response","trial_index":62,"time_elapsed":335555,"internal_node_id":"0.0-4.0-1.27","subject_id":"5cd052fcd6d8dc0013f84e66","study_id":"6197b3f67c2b5cd3b6d9596a","session_id":"619be788dc48732320e94f6c","condition":"full-information","relevant_dimensions":["antennae","wings"],"bee_group":{"antennae":"B","wings":"1","pattern":"X","legs":"X"},"bonus":0.9000000000000012},{"rt":2627.199999988079,"stimulus":"bees-with-color/bee-B1DM.svg","response":0,"trial_type":"image-button-response","trial_index":63,"time_elapsed":338191,"internal_node_id":"0.0-4.0-0.28","subject_id":"5cd052fcd6d8dc0013f84e66","study_id":"6197b3f67c2b5cd3b6d9596a","session_id":"619be788dc48732320e94f6c","condition":"full-information","relevant_dimensions":["antennae","wings"],"bee_group":{"antennae":"B","wings":"1","pattern":"X","legs":"X"},"action":"harvest","summary":"bad-harvest","bonus":0.9000000000000012},{"rt":1048.8999999761581,"stimulus":"\n                    <p><b>Action: <em>harvest</em></b></p>\n                    <p>This is the bee that you just saw.</p>\n                    <img src=\"bees-with-color/bee-B1DM.svg\" width=\"200\">\n                    <p><span class=\"redText\">Bad choice, the bee was angry.</span><br><b>You have been stung!</b><br>Your pay has been decreased by $0.10. Your bonus pay is now $0.40.</p>\n            ","response":0,"trial_type":"html-button-response","trial_index":64,"time_elapsed":339250,"internal_node_id":"0.0-4.0-1.28","subject_id":"5cd052fcd6d8dc0013f84e66","study_id":"6197b3f67c2b5cd3b6d9596a","session_id":"619be788dc48732320e94f6c","condition":"full-information","relevant_dimensions":["antennae","wings"],"bee_group":{"antennae":"B","wings":"1","pattern":"X","legs":"X"},"bonus":0.9000000000000012},{"rt":1567.4000000059605,"stimulus":"bees-with-color/bee-A1SM.svg","response":0,"trial_type":"image-button-response","trial_index":65,"time_elapsed":340827,"internal_node_id":"0.0-4.0-0.29","subject_id":"5cd052fcd6d8dc0013f84e66","study_id":"6197b3f67c2b5cd3b6d9596a","session_id":"619be788dc48732320e94f6c","condition":"full-information","relevant_dimensions":["antennae","wings"],"bee_group":{"antennae":"B","wings":"1","pattern":"X","legs":"X"},"action":"harvest","summary":"good-harvest","bonus":0.9000000000000012},{"rt":810.0999999940395,"stimulus":"\n                    <p><b>Action: <em>harvest</em></b></p>\n                    <p>This is the bee that you just saw.</p>\n                    <img src=\"bees-with-color/bee-A1SM.svg\" width=\"200\">\n                    <p><span class=\"greenText\"><b>Successful harvest!</b></span><br>Your pay has increased by $0.02. Your bonus pay is now $0.42.</p>\n            ","response":0,"trial_type":"html-button-response","trial_index":66,"time_elapsed":341646,"internal_node_id":"0.0-4.0-1.29","subject_id":"5cd052fcd6d8dc0013f84e66","study_id":"6197b3f67c2b5cd3b6d9596a","session_id":"619be788dc48732320e94f6c","condition":"full-information","relevant_dimensions":["antennae","wings"],"bee_group":{"antennae":"B","wings":"1","pattern":"X","legs":"X"},"bonus":0.9000000000000012},{"rt":1941.4000000059605,"stimulus":"bees-with-color/bee-B2DF.svg","response":1,"trial_type":"image-button-response","trial_index":67,"time_elapsed":343595,"internal_node_id":"0.0-4.0-0.30","subject_id":"5cd052fcd6d8dc0013f84e66","study_id":"6197b3f67c2b5cd3b6d9596a","session_id":"619be788dc48732320e94f6c","condition":"full-information","relevant_dimensions":["antennae","wings"],"bee_group":{"antennae":"B","wings":"1","pattern":"X","legs":"X"},"action":"avoid","summary":"bad-avoid","bonus":0.9000000000000012},{"rt":809.3000000119209,"stimulus":"\n                    <p><b>Action: <em>avoid</em></b></p>\n                    <p>This is the bee that you just saw.</p>\n                    <img src=\"bees-with-color/bee-B2DF.svg\" width=\"200\">\n                    <p><span class=\"redText\">Bad choice,</span> the bee was friendly.<br>Your bonus pay is unchanged, and remains at $0.42.</p>\n            ","response":0,"trial_type":"html-button-response","trial_index":68,"time_elapsed":344413,"internal_node_id":"0.0-4.0-1.30","subject_id":"5cd052fcd6d8dc0013f84e66","study_id":"6197b3f67c2b5cd3b6d9596a","session_id":"619be788dc48732320e94f6c","condition":"full-information","relevant_dimensions":["antennae","wings"],"bee_group":{"antennae":"B","wings":"1","pattern":"X","legs":"X"},"bonus":0.9000000000000012},{"rt":2302.9000000059605,"stimulus":"bees-with-color/bee-B2DM.svg","response":0,"trial_type":"image-button-response","trial_index":69,"time_elapsed":346724,"internal_node_id":"0.0-4.0-0.31","subject_id":"5cd052fcd6d8dc0013f84e66","study_id":"6197b3f67c2b5cd3b6d9596a","session_id":"619be788dc48732320e94f6c","condition":"full-information","relevant_dimensions":["antennae","wings"],"bee_group":{"antennae":"B","wings":"1","pattern":"X","legs":"X"},"action":"harvest","summary":"good-harvest","bonus":0.9000000000000012},{"rt":652.6999999880791,"stimulus":"\n                    <p><b>Action: <em>harvest</em></b></p>\n                    <p>This is the bee that you just saw.</p>\n                    <img src=\"bees-with-color/bee-B2DM.svg\" width=\"200\">\n                    <p><span class=\"greenText\"><b>Successful harvest!</b></span><br>Your pay has increased by $0.02. Your bonus pay is now $0.44.</p>\n            ","response":0,"trial_type":"html-button-response","trial_index":70,"time_elapsed":347386,"internal_node_id":"0.0-4.0-1.31","subject_id":"5cd052fcd6d8dc0013f84e66","study_id":"6197b3f67c2b5cd3b6d9596a","session_id":"619be788dc48732320e94f6c","condition":"full-information","relevant_dimensions":["antennae","wings"],"bee_group":{"antennae":"B","wings":"1","pattern":"X","legs":"X"},"bonus":0.9000000000000012},{"rt":1721.9000000059605,"stimulus":"bees-with-color/bee-A1DF.svg","response":0,"trial_type":"image-button-response","trial_index":71,"time_elapsed":349118,"internal_node_id":"0.0-4.0-0.32","subject_id":"5cd052fcd6d8dc0013f84e66","study_id":"6197b3f67c2b5cd3b6d9596a","session_id":"619be788dc48732320e94f6c","condition":"full-information","relevant_dimensions":["antennae","wings"],"bee_group":{"antennae":"B","wings":"1","pattern":"X","legs":"X"},"action":"harvest","summary":"good-harvest","bonus":0.9000000000000012},{"rt":848.7999999821186,"stimulus":"\n                    <p><b>Action: <em>harvest</em></b></p>\n                    <p>This is the bee that you just saw.</p>\n                    <img src=\"bees-with-color/bee-A1DF.svg\" width=\"200\">\n                    <p><span class=\"greenText\"><b>Successful harvest!</b></span><br>Your pay has increased by $0.02. Your bonus pay is now $0.46.</p>\n            ","response":0,"trial_type":"html-button-response","trial_index":72,"time_elapsed":349974,"internal_node_id":"0.0-4.0-1.32","subject_id":"5cd052fcd6d8dc0013f84e66","study_id":"6197b3f67c2b5cd3b6d9596a","session_id":"619be788dc48732320e94f6c","condition":"full-information","relevant_dimensions":["antennae","wings"],"bee_group":{"antennae":"B","wings":"1","pattern":"X","legs":"X"},"bonus":0.9000000000000012},{"rt":2892.0999999940395,"stimulus":"bees-with-color/bee-B2DF.svg","response":1,"trial_type":"image-button-response","trial_index":73,"time_elapsed":352875,"internal_node_id":"0.0-4.0-0.33","subject_id":"5cd052fcd6d8dc0013f84e66","study_id":"6197b3f67c2b5cd3b6d9596a","session_id":"619be788dc48732320e94f6c","condition":"full-information","relevant_dimensions":["antennae","wings"],"bee_group":{"antennae":"B","wings":"1","pattern":"X","legs":"X"},"action":"avoid","summary":"bad-avoid","bonus":0.9000000000000012},{"rt":1194.5,"stimulus":"\n                    <p><b>Action: <em>avoid</em></b></p>\n                    <p>This is the bee that you just saw.</p>\n                    <img src=\"bees-with-color/bee-B2DF.svg\" width=\"200\">\n                    <p><span class=\"redText\">Bad choice,</span> the bee was friendly.<br>Your bonus pay is unchanged, and remains at $0.46.</p>\n            ","response":0,"trial_type":"html-button-response","trial_index":74,"time_elapsed":354078,"internal_node_id":"0.0-4.0-1.33","subject_id":"5cd052fcd6d8dc0013f84e66","study_id":"6197b3f67c2b5cd3b6d9596a","session_id":"619be788dc48732320e94f6c","condition":"full-information","relevant_dimensions":["antennae","wings"],"bee_group":{"antennae":"B","wings":"1","pattern":"X","legs":"X"},"bonus":0.9000000000000012},{"rt":1109.199999988079,"stimulus":"bees-with-color/bee-A2SM.svg","response":0,"trial_type":"image-button-response","trial_index":75,"time_elapsed":355199,"internal_node_id":"0.0-4.0-0.34","subject_id":"5cd052fcd6d8dc0013f84e66","study_id":"6197b3f67c2b5cd3b6d9596a","session_id":"619be788dc48732320e94f6c","condition":"full-information","relevant_dimensions":["antennae","wings"],"bee_group":{"antennae":"B","wings":"1","pattern":"X","legs":"X"},"action":"harvest","summary":"good-harvest","bonus":0.9000000000000012},{"rt":687.1999999880791,"stimulus":"\n                    <p><b>Action: <em>harvest</em></b></p>\n                    <p>This is the bee that you just saw.</p>\n                    <img src=\"bees-with-color/bee-A2SM.svg\" width=\"200\">\n                    <p><span class=\"greenText\"><b>Successful harvest!</b></span><br>Your pay has increased by $0.02. Your bonus pay is now $0.48.</p>\n            ","response":0,"trial_type":"html-button-response","trial_index":76,"time_elapsed":355896,"internal_node_id":"0.0-4.0-1.34","subject_id":"5cd052fcd6d8dc0013f84e66","study_id":"6197b3f67c2b5cd3b6d9596a","session_id":"619be788dc48732320e94f6c","condition":"full-information","relevant_dimensions":["antennae","wings"],"bee_group":{"antennae":"B","wings":"1","pattern":"X","legs":"X"},"bonus":0.9000000000000012},{"rt":3556.5,"stimulus":"bees-with-color/bee-B1DF.svg","response":1,"trial_type":"image-button-response","trial_index":77,"time_elapsed":359458,"internal_node_id":"0.0-4.0-0.35","subject_id":"5cd052fcd6d8dc0013f84e66","study_id":"6197b3f67c2b5cd3b6d9596a","session_id":"619be788dc48732320e94f6c","condition":"full-information","relevant_dimensions":["antennae","wings"],"bee_group":{"antennae":"B","wings":"1","pattern":"X","legs":"X"},"action":"avoid","summary":"good-avoid","bonus":0.9000000000000012},{"rt":1761.800000011921,"stimulus":"\n                    <p><b>Action: <em>avoid</em></b></p>\n                    <p>This is the bee that you just saw.</p>\n                    <img src=\"bees-with-color/bee-B1DF.svg\" width=\"200\">\n                    <p><span class=\"greenText\">Good choice!</span>  This bee would have stung you.<br>Your bonus pay is unchanged, and remains at $0.48.</p>\n            ","response":0,"trial_type":"html-button-response","trial_index":78,"time_elapsed":361228,"internal_node_id":"0.0-4.0-1.35","subject_id":"5cd052fcd6d8dc0013f84e66","study_id":"6197b3f67c2b5cd3b6d9596a","session_id":"619be788dc48732320e94f6c","condition":"full-information","relevant_dimensions":["antennae","wings"],"bee_group":{"antennae":"B","wings":"1","pattern":"X","legs":"X"},"bonus":0.9000000000000012},{"rt":1472.9000000059605,"stimulus":"bees-with-color/bee-A1SM.svg","response":0,"trial_type":"image-button-response","trial_index":79,"time_elapsed":362709,"internal_node_id":"0.0-4.0-0.36","subject_id":"5cd052fcd6d8dc0013f84e66","study_id":"6197b3f67c2b5cd3b6d9596a","session_id":"619be788dc48732320e94f6c","condition":"full-information","relevant_dimensions":["antennae","wings"],"bee_group":{"antennae":"B","wings":"1","pattern":"X","legs":"X"},"action":"harvest","summary":"good-harvest","bonus":0.9000000000000012},{"rt":726.3000000119209,"stimulus":"\n                    <p><b>Action: <em>harvest</em></b></p>\n                    <p>This is the bee that you just saw.</p>\n                    <img src=\"bees-with-color/bee-A1SM.svg\" width=\"200\">\n                    <p><span class=\"greenText\"><b>Successful harvest!</b></span><br>Your pay has increased by $0.02. Your bonus pay is now $0.50.</p>\n            ","response":0,"trial_type":"html-button-response","trial_index":80,"time_elapsed":363442,"internal_node_id":"0.0-4.0-1.36","subject_id":"5cd052fcd6d8dc0013f84e66","study_id":"6197b3f67c2b5cd3b6d9596a","session_id":"619be788dc48732320e94f6c","condition":"full-information","relevant_dimensions":["antennae","wings"],"bee_group":{"antennae":"B","wings":"1","pattern":"X","legs":"X"},"bonus":0.9000000000000012},{"rt":4105.699999988079,"stimulus":"bees-with-color/bee-B1SM.svg","response":1,"trial_type":"image-button-response","trial_index":81,"time_elapsed":367541,"internal_node_id":"0.0-4.0-0.37","subject_id":"5cd052fcd6d8dc0013f84e66","study_id":"6197b3f67c2b5cd3b6d9596a","session_id":"619be788dc48732320e94f6c","condition":"full-information","relevant_dimensions":["antennae","wings"],"bee_group":{"antennae":"B","wings":"1","pattern":"X","legs":"X"},"action":"avoid","summary":"good-avoid","bonus":0.9000000000000012},{"rt":1208,"stimulus":"\n                    <p><b>Action: <em>avoid</em></b></p>\n                    <p>This is the bee that you just saw.</p>\n                    <img src=\"bees-with-color/bee-B1SM.svg\" width=\"200\">\n                    <p><span class=\"greenText\">Good choice!</span>  This bee would have stung you.<br>Your bonus pay is unchanged, and remains at $0.50.</p>\n            ","response":0,"trial_type":"html-button-response","trial_index":82,"time_elapsed":368756,"internal_node_id":"0.0-4.0-1.37","subject_id":"5cd052fcd6d8dc0013f84e66","study_id":"6197b3f67c2b5cd3b6d9596a","session_id":"619be788dc48732320e94f6c","condition":"full-information","relevant_dimensions":["antennae","wings"],"bee_group":{"antennae":"B","wings":"1","pattern":"X","legs":"X"},"bonus":0.9000000000000012},{"rt":1170.2000000178814,"stimulus":"bees-with-color/bee-A2SF.svg","response":0,"trial_type":"image-button-response","trial_index":83,"time_elapsed":369935,"internal_node_id":"0.0-4.0-0.38","subject_id":"5cd052fcd6d8dc0013f84e66","study_id":"6197b3f67c2b5cd3b6d9596a","session_id":"619be788dc48732320e94f6c","condition":"full-information","relevant_dimensions":["antennae","wings"],"bee_group":{"antennae":"B","wings":"1","pattern":"X","legs":"X"},"action":"harvest","summary":"good-harvest","bonus":0.9000000000000012},{"rt":800.4000000059605,"stimulus":"\n                    <p><b>Action: <em>harvest</em></b></p>\n                    <p>This is the bee that you just saw.</p>\n                    <img src=\"bees-with-color/bee-A2SF.svg\" width=\"200\">\n                    <p><span class=\"greenText\"><b>Successful harvest!</b></span><br>Your pay has increased by $0.02. Your bonus pay is now $0.52.</p>\n            ","response":0,"trial_type":"html-button-response","trial_index":84,"time_elapsed":370742,"internal_node_id":"0.0-4.0-1.38","subject_id":"5cd052fcd6d8dc0013f84e66","study_id":"6197b3f67c2b5cd3b6d9596a","session_id":"619be788dc48732320e94f6c","condition":"full-information","relevant_dimensions":["antennae","wings"],"bee_group":{"antennae":"B","wings":"1","pattern":"X","legs":"X"},"bonus":0.9000000000000012},{"rt":1704,"stimulus":"bees-with-color/bee-A1SF.svg","response":0,"trial_type":"image-button-response","trial_index":85,"time_elapsed":372452,"internal_node_id":"0.0-4.0-0.39","subject_id":"5cd052fcd6d8dc0013f84e66","study_id":"6197b3f67c2b5cd3b6d9596a","session_id":"619be788dc48732320e94f6c","condition":"full-information","relevant_dimensions":["antennae","wings"],"bee_group":{"antennae":"B","wings":"1","pattern":"X","legs":"X"},"action":"harvest","summary":"good-harvest","bonus":0.9000000000000012},{"rt":1316.7000000178814,"stimulus":"\n                    <p><b>Action: <em>harvest</em></b></p>\n                    <p>This is the bee that you just saw.</p>\n                    <img src=\"bees-with-color/bee-A1SF.svg\" width=\"200\">\n                    <p><span class=\"greenText\"><b>Successful harvest!</b></span><br>Your pay has increased by $0.02. Your bonus pay is now $0.54.</p>\n            ","response":0,"trial_type":"html-button-response","trial_index":86,"time_elapsed":373776,"internal_node_id":"0.0-4.0-1.39","subject_id":"5cd052fcd6d8dc0013f84e66","study_id":"6197b3f67c2b5cd3b6d9596a","session_id":"619be788dc48732320e94f6c","condition":"full-information","relevant_dimensions":["antennae","wings"],"bee_group":{"antennae":"B","wings":"1","pattern":"X","legs":"X"},"bonus":0.9000000000000012},{"rt":2735.5,"stimulus":"bees-with-color/bee-B1DM.svg","response":0,"trial_type":"image-button-response","trial_index":87,"time_elapsed":376520,"internal_node_id":"0.0-4.0-0.40","subject_id":"5cd052fcd6d8dc0013f84e66","study_id":"6197b3f67c2b5cd3b6d9596a","session_id":"619be788dc48732320e94f6c","condition":"full-information","relevant_dimensions":["antennae","wings"],"bee_group":{"antennae":"B","wings":"1","pattern":"X","legs":"X"},"action":"harvest","summary":"bad-harvest","bonus":0.9000000000000012},{"rt":919.7000000178814,"stimulus":"\n                    <p><b>Action: <em>harvest</em></b></p>\n                    <p>This is the bee that you just saw.</p>\n                    <img src=\"bees-with-color/bee-B1DM.svg\" width=\"200\">\n                    <p><span class=\"redText\">Bad choice, the bee was angry.</span><br><b>You have been stung!</b><br>Your pay has been decreased by $0.10. Your bonus pay is now $0.44.</p>\n            ","response":0,"trial_type":"html-button-response","trial_index":88,"time_elapsed":377447,"internal_node_id":"0.0-4.0-1.40","subject_id":"5cd052fcd6d8dc0013f84e66","study_id":"6197b3f67c2b5cd3b6d9596a","session_id":"619be788dc48732320e94f6c","condition":"full-information","relevant_dimensions":["antennae","wings"],"bee_group":{"antennae":"B","wings":"1","pattern":"X","legs":"X"},"bonus":0.9000000000000012},{"rt":1281.5,"stimulus":"bees-with-color/bee-B2SF.svg","response":0,"trial_type":"image-button-response","trial_index":89,"time_elapsed":378747,"internal_node_id":"0.0-4.0-0.41","subject_id":"5cd052fcd6d8dc0013f84e66","study_id":"6197b3f67c2b5cd3b6d9596a","session_id":"619be788dc48732320e94f6c","condition":"full-information","relevant_dimensions":["antennae","wings"],"bee_group":{"antennae":"B","wings":"1","pattern":"X","legs":"X"},"action":"harvest","summary":"good-harvest","bonus":0.9000000000000012},{"rt":594.2999999821186,"stimulus":"\n                    <p><b>Action: <em>harvest</em></b></p>\n                    <p>This is the bee that you just saw.</p>\n                    <img src=\"bees-with-color/bee-B2SF.svg\" width=\"200\">\n                    <p><span class=\"greenText\"><b>Successful harvest!</b></span><br>Your pay has increased by $0.02. Your bonus pay is now $0.46.</p>\n            ","response":0,"trial_type":"html-button-response","trial_index":90,"time_elapsed":379348,"internal_node_id":"0.0-4.0-1.41","subject_id":"5cd052fcd6d8dc0013f84e66","study_id":"6197b3f67c2b5cd3b6d9596a","session_id":"619be788dc48732320e94f6c","condition":"full-information","relevant_dimensions":["antennae","wings"],"bee_group":{"antennae":"B","wings":"1","pattern":"X","legs":"X"},"bonus":0.9000000000000012},{"rt":1257.9000000059605,"stimulus":"bees-with-color/bee-A2DM.svg","response":0,"trial_type":"image-button-response","trial_index":91,"time_elapsed":380613,"internal_node_id":"0.0-4.0-0.42","subject_id":"5cd052fcd6d8dc0013f84e66","study_id":"6197b3f67c2b5cd3b6d9596a","session_id":"619be788dc48732320e94f6c","condition":"full-information","relevant_dimensions":["antennae","wings"],"bee_group":{"antennae":"B","wings":"1","pattern":"X","legs":"X"},"action":"harvest","summary":"good-harvest","bonus":0.9000000000000012},{"rt":667.0999999940395,"stimulus":"\n                    <p><b>Action: <em>harvest</em></b></p>\n                    <p>This is the bee that you just saw.</p>\n                    <img src=\"bees-with-color/bee-A2DM.svg\" width=\"200\">\n                    <p><span class=\"greenText\"><b>Successful harvest!</b></span><br>Your pay has increased by $0.02. Your bonus pay is now $0.48.</p>\n            ","response":0,"trial_type":"html-button-response","trial_index":92,"time_elapsed":381288,"internal_node_id":"0.0-4.0-1.42","subject_id":"5cd052fcd6d8dc0013f84e66","study_id":"6197b3f67c2b5cd3b6d9596a","session_id":"619be788dc48732320e94f6c","condition":"full-information","relevant_dimensions":["antennae","wings"],"bee_group":{"antennae":"B","wings":"1","pattern":"X","legs":"X"},"bonus":0.9000000000000012},{"rt":1714.1000000238419,"stimulus":"bees-with-color/bee-B2SM.svg","response":0,"trial_type":"image-button-response","trial_index":93,"time_elapsed":383008,"internal_node_id":"0.0-4.0-0.43","subject_id":"5cd052fcd6d8dc0013f84e66","study_id":"6197b3f67c2b5cd3b6d9596a","session_id":"619be788dc48732320e94f6c","condition":"full-information","relevant_dimensions":["antennae","wings"],"bee_group":{"antennae":"B","wings":"1","pattern":"X","legs":"X"},"action":"harvest","summary":"good-harvest","bonus":0.9000000000000012},{"rt":654.0999999940395,"stimulus":"\n                    <p><b>Action: <em>harvest</em></b></p>\n                    <p>This is the bee that you just saw.</p>\n                    <img src=\"bees-with-color/bee-B2SM.svg\" width=\"200\">\n                    <p><span class=\"greenText\"><b>Successful harvest!</b></span><br>Your pay has increased by $0.02. Your bonus pay is now $0.50.</p>\n            ","response":0,"trial_type":"html-button-response","trial_index":94,"time_elapsed":383670,"internal_node_id":"0.0-4.0-1.43","subject_id":"5cd052fcd6d8dc0013f84e66","study_id":"6197b3f67c2b5cd3b6d9596a","session_id":"619be788dc48732320e94f6c","condition":"full-information","relevant_dimensions":["antennae","wings"],"bee_group":{"antennae":"B","wings":"1","pattern":"X","legs":"X"},"bonus":0.9000000000000012},{"rt":2328.600000023842,"stimulus":"bees-with-color/bee-B2DM.svg","response":1,"trial_type":"image-button-response","trial_index":95,"time_elapsed":386006,"internal_node_id":"0.0-4.0-0.44","subject_id":"5cd052fcd6d8dc0013f84e66","study_id":"6197b3f67c2b5cd3b6d9596a","session_id":"619be788dc48732320e94f6c","condition":"full-information","relevant_dimensions":["antennae","wings"],"bee_group":{"antennae":"B","wings":"1","pattern":"X","legs":"X"},"action":"avoid","summary":"bad-avoid","bonus":0.9000000000000012},{"rt":845.6999999880791,"stimulus":"\n                    <p><b>Action: <em>avoid</em></b></p>\n                    <p>This is the bee that you just saw.</p>\n                    <img src=\"bees-with-color/bee-B2DM.svg\" width=\"200\">\n                    <p><span class=\"redText\">Bad choice,</span> the bee was friendly.<br>Your bonus pay is unchanged, and remains at $0.50.</p>\n            ","response":0,"trial_type":"html-button-response","trial_index":96,"time_elapsed":386860,"internal_node_id":"0.0-4.0-1.44","subject_id":"5cd052fcd6d8dc0013f84e66","study_id":"6197b3f67c2b5cd3b6d9596a","session_id":"619be788dc48732320e94f6c","condition":"full-information","relevant_dimensions":["antennae","wings"],"bee_group":{"antennae":"B","wings":"1","pattern":"X","legs":"X"},"bonus":0.9000000000000012},{"rt":1389.9000000059605,"stimulus":"bees-with-color/bee-A2DF.svg","response":0,"trial_type":"image-button-response","trial_index":97,"time_elapsed":388257,"internal_node_id":"0.0-4.0-0.45","subject_id":"5cd052fcd6d8dc0013f84e66","study_id":"6197b3f67c2b5cd3b6d9596a","session_id":"619be788dc48732320e94f6c","condition":"full-information","relevant_dimensions":["antennae","wings"],"bee_group":{"antennae":"B","wings":"1","pattern":"X","legs":"X"},"action":"harvest","summary":"good-harvest","bonus":0.9000000000000012},{"rt":737.9000000059605,"stimulus":"\n                    <p><b>Action: <em>harvest</em></b></p>\n                    <p>This is the bee that you just saw.</p>\n                    <img src=\"bees-with-color/bee-A2DF.svg\" width=\"200\">\n                    <p><span class=\"greenText\"><b>Successful harvest!</b></span><br>Your pay has increased by $0.02. Your bonus pay is now $0.52.</p>\n            ","response":0,"trial_type":"html-button-response","trial_index":98,"time_elapsed":389004,"internal_node_id":"0.0-4.0-1.45","subject_id":"5cd052fcd6d8dc0013f84e66","study_id":"6197b3f67c2b5cd3b6d9596a","session_id":"619be788dc48732320e94f6c","condition":"full-information","relevant_dimensions":["antennae","wings"],"bee_group":{"antennae":"B","wings":"1","pattern":"X","legs":"X"},"bonus":0.9000000000000012},{"rt":2688.5,"stimulus":"bees-with-color/bee-B1SF.svg","response":1,"trial_type":"image-button-response","trial_index":99,"time_elapsed":391699,"internal_node_id":"0.0-4.0-0.46","subject_id":"5cd052fcd6d8dc0013f84e66","study_id":"6197b3f67c2b5cd3b6d9596a","session_id":"619be788dc48732320e94f6c","condition":"full-information","relevant_dimensions":["antennae","wings"],"bee_group":{"antennae":"B","wings":"1","pattern":"X","legs":"X"},"action":"avoid","summary":"good-avoid","bonus":0.9000000000000012},{"rt":1339.9000000059605,"stimulus":"\n                    <p><b>Action: <em>avoid</em></b></p>\n                    <p>This is the bee that you just saw.</p>\n                    <img src=\"bees-with-color/bee-B1SF.svg\" width=\"200\">\n                    <p><span class=\"greenText\">Good choice!</span>  This bee would have stung you.<br>Your bonus pay is unchanged, and remains at $0.52.</p>\n            ","response":0,"trial_type":"html-button-response","trial_index":100,"time_elapsed":393047,"internal_node_id":"0.0-4.0-1.46","subject_id":"5cd052fcd6d8dc0013f84e66","study_id":"6197b3f67c2b5cd3b6d9596a","session_id":"619be788dc48732320e94f6c","condition":"full-information","relevant_dimensions":["antennae","wings"],"bee_group":{"antennae":"B","wings":"1","pattern":"X","legs":"X"},"bonus":0.9000000000000012},{"rt":1880.9000000059605,"stimulus":"bees-with-color/bee-A1DM.svg","response":0,"trial_type":"image-button-response","trial_index":101,"time_elapsed":394938,"internal_node_id":"0.0-4.0-0.47","subject_id":"5cd052fcd6d8dc0013f84e66","study_id":"6197b3f67c2b5cd3b6d9596a","session_id":"619be788dc48732320e94f6c","condition":"full-information","relevant_dimensions":["antennae","wings"],"bee_group":{"antennae":"B","wings":"1","pattern":"X","legs":"X"},"action":"harvest","summary":"good-harvest","bonus":0.9000000000000012},{"rt":1207.5,"stimulus":"\n                    <p><b>Action: <em>harvest</em></b></p>\n                    <p>This is the bee that you just saw.</p>\n                    <img src=\"bees-with-color/bee-A1DM.svg\" width=\"200\">\n                    <p><span class=\"greenText\"><b>Successful harvest!</b></span><br>Your pay has increased by $0.02. Your bonus pay is now $0.54.</p>\n            ","response":0,"trial_type":"html-button-response","trial_index":102,"time_elapsed":396154,"internal_node_id":"0.0-4.0-1.47","subject_id":"5cd052fcd6d8dc0013f84e66","study_id":"6197b3f67c2b5cd3b6d9596a","session_id":"619be788dc48732320e94f6c","condition":"full-information","relevant_dimensions":["antennae","wings"],"bee_group":{"antennae":"B","wings":"1","pattern":"X","legs":"X"},"bonus":0.9000000000000012},{"rt":6054.0999999940395,"stimulus":"bees-with-color/bee-B2DM.svg","response":0,"trial_type":"image-button-response","trial_index":103,"time_elapsed":402218,"internal_node_id":"0.0-4.0-0.48","subject_id":"5cd052fcd6d8dc0013f84e66","study_id":"6197b3f67c2b5cd3b6d9596a","session_id":"619be788dc48732320e94f6c","condition":"full-information","relevant_dimensions":["antennae","wings"],"bee_group":{"antennae":"B","wings":"1","pattern":"X","legs":"X"},"action":"harvest","summary":"good-harvest","bonus":0.9000000000000012},{"rt":1147.7000000178814,"stimulus":"\n                    <p><b>Action: <em>harvest</em></b></p>\n                    <p>This is the bee that you just saw.</p>\n                    <img src=\"bees-with-color/bee-B2DM.svg\" width=\"200\">\n                    <p><span class=\"greenText\"><b>Successful harvest!</b></span><br>Your pay has increased by $0.02. Your bonus pay is now $0.56.</p>\n            ","response":0,"trial_type":"html-button-response","trial_index":104,"time_elapsed":403374,"internal_node_id":"0.0-4.0-1.48","subject_id":"5cd052fcd6d8dc0013f84e66","study_id":"6197b3f67c2b5cd3b6d9596a","session_id":"619be788dc48732320e94f6c","condition":"full-information","relevant_dimensions":["antennae","wings"],"bee_group":{"antennae":"B","wings":"1","pattern":"X","legs":"X"},"bonus":0.9000000000000012},{"rt":5599.4000000059605,"stimulus":"bees-with-color/bee-B2DF.svg","response":1,"trial_type":"image-button-response","trial_index":105,"time_elapsed":408984,"internal_node_id":"0.0-4.0-0.49","subject_id":"5cd052fcd6d8dc0013f84e66","study_id":"6197b3f67c2b5cd3b6d9596a","session_id":"619be788dc48732320e94f6c","condition":"full-information","relevant_dimensions":["antennae","wings"],"bee_group":{"antennae":"B","wings":"1","pattern":"X","legs":"X"},"action":"avoid","summary":"bad-avoid","bonus":0.9000000000000012},{"rt":784.3000000119209,"stimulus":"\n                    <p><b>Action: <em>avoid</em></b></p>\n                    <p>This is the bee that you just saw.</p>\n                    <img src=\"bees-with-color/bee-B2DF.svg\" width=\"200\">\n                    <p><span class=\"redText\">Bad choice,</span> the bee was friendly.<br>Your bonus pay is unchanged, and remains at $0.56.</p>\n            ","response":0,"trial_type":"html-button-response","trial_index":106,"time_elapsed":409777,"internal_node_id":"0.0-4.0-1.49","subject_id":"5cd052fcd6d8dc0013f84e66","study_id":"6197b3f67c2b5cd3b6d9596a","session_id":"619be788dc48732320e94f6c","condition":"full-information","relevant_dimensions":["antennae","wings"],"bee_group":{"antennae":"B","wings":"1","pattern":"X","legs":"X"},"bonus":0.9000000000000012},{"rt":855.0999999940395,"stimulus":"bees-with-color/bee-B1SF.svg","response":1,"trial_type":"image-button-response","trial_index":107,"time_elapsed":410643,"internal_node_id":"0.0-4.0-0.50","subject_id":"5cd052fcd6d8dc0013f84e66","study_id":"6197b3f67c2b5cd3b6d9596a","session_id":"619be788dc48732320e94f6c","condition":"full-information","relevant_dimensions":["antennae","wings"],"bee_group":{"antennae":"B","wings":"1","pattern":"X","legs":"X"},"action":"avoid","summary":"good-avoid","bonus":0.9000000000000012},{"rt":628.1999999880791,"stimulus":"\n                    <p><b>Action: <em>avoid</em></b></p>\n                    <p>This is the bee that you just saw.</p>\n                    <img src=\"bees-with-color/bee-B1SF.svg\" width=\"200\">\n                    <p><span class=\"greenText\">Good choice!</span>  This bee would have stung you.<br>Your bonus pay is unchanged, and remains at $0.56.</p>\n            ","response":0,"trial_type":"html-button-response","trial_index":108,"time_elapsed":411281,"internal_node_id":"0.0-4.0-1.50","subject_id":"5cd052fcd6d8dc0013f84e66","study_id":"6197b3f67c2b5cd3b6d9596a","session_id":"619be788dc48732320e94f6c","condition":"full-information","relevant_dimensions":["antennae","wings"],"bee_group":{"antennae":"B","wings":"1","pattern":"X","legs":"X"},"bonus":0.9000000000000012},{"rt":907.3000000119209,"stimulus":"bees-with-color/bee-A2SF.svg","response":0,"trial_type":"image-button-response","trial_index":109,"time_elapsed":412197,"internal_node_id":"0.0-4.0-0.51","subject_id":"5cd052fcd6d8dc0013f84e66","study_id":"6197b3f67c2b5cd3b6d9596a","session_id":"619be788dc48732320e94f6c","condition":"full-information","relevant_dimensions":["antennae","wings"],"bee_group":{"antennae":"B","wings":"1","pattern":"X","legs":"X"},"action":"harvest","summary":"good-harvest","bonus":0.9000000000000012},{"rt":701.4000000059605,"stimulus":"\n                    <p><b>Action: <em>harvest</em></b></p>\n                    <p>This is the bee that you just saw.</p>\n                    <img src=\"bees-with-color/bee-A2SF.svg\" width=\"200\">\n                    <p><span class=\"greenText\"><b>Successful harvest!</b></span><br>Your pay has increased by $0.02. Your bonus pay is now $0.58.</p>\n            ","response":0,"trial_type":"html-button-response","trial_index":110,"time_elapsed":412907,"internal_node_id":"0.0-4.0-1.51","subject_id":"5cd052fcd6d8dc0013f84e66","study_id":"6197b3f67c2b5cd3b6d9596a","session_id":"619be788dc48732320e94f6c","condition":"full-information","relevant_dimensions":["antennae","wings"],"bee_group":{"antennae":"B","wings":"1","pattern":"X","legs":"X"},"bonus":0.9000000000000012},{"rt":942,"stimulus":"bees-with-color/bee-A2SM.svg","response":0,"trial_type":"image-button-response","trial_index":111,"time_elapsed":413857,"internal_node_id":"0.0-4.0-0.52","subject_id":"5cd052fcd6d8dc0013f84e66","study_id":"6197b3f67c2b5cd3b6d9596a","session_id":"619be788dc48732320e94f6c","condition":"full-information","relevant_dimensions":["antennae","wings"],"bee_group":{"antennae":"B","wings":"1","pattern":"X","legs":"X"},"action":"harvest","summary":"good-harvest","bonus":0.9000000000000012},{"rt":688.1999999880791,"stimulus":"\n                    <p><b>Action: <em>harvest</em></b></p>\n                    <p>This is the bee that you just saw.</p>\n                    <img src=\"bees-with-color/bee-A2SM.svg\" width=\"200\">\n                    <p><span class=\"greenText\"><b>Successful harvest!</b></span><br>Your pay has increased by $0.02. Your bonus pay is now $0.60.</p>\n            ","response":0,"trial_type":"html-button-response","trial_index":112,"time_elapsed":414556,"internal_node_id":"0.0-4.0-1.52","subject_id":"5cd052fcd6d8dc0013f84e66","study_id":"6197b3f67c2b5cd3b6d9596a","session_id":"619be788dc48732320e94f6c","condition":"full-information","relevant_dimensions":["antennae","wings"],"bee_group":{"antennae":"B","wings":"1","pattern":"X","legs":"X"},"bonus":0.9000000000000012},{"rt":1388.7000000178814,"stimulus":"bees-with-color/bee-B1DF.svg","response":1,"trial_type":"image-button-response","trial_index":113,"time_elapsed":415952,"internal_node_id":"0.0-4.0-0.53","subject_id":"5cd052fcd6d8dc0013f84e66","study_id":"6197b3f67c2b5cd3b6d9596a","session_id":"619be788dc48732320e94f6c","condition":"full-information","relevant_dimensions":["antennae","wings"],"bee_group":{"antennae":"B","wings":"1","pattern":"X","legs":"X"},"action":"avoid","summary":"good-avoid","bonus":0.9000000000000012},{"rt":929,"stimulus":"\n                    <p><b>Action: <em>avoid</em></b></p>\n                    <p>This is the bee that you just saw.</p>\n                    <img src=\"bees-with-color/bee-B1DF.svg\" width=\"200\">\n                    <p><span class=\"greenText\">Good choice!</span>  This bee would have stung you.<br>Your bonus pay is unchanged, and remains at $0.60.</p>\n            ","response":0,"trial_type":"html-button-response","trial_index":114,"time_elapsed":416890,"internal_node_id":"0.0-4.0-1.53","subject_id":"5cd052fcd6d8dc0013f84e66","study_id":"6197b3f67c2b5cd3b6d9596a","session_id":"619be788dc48732320e94f6c","condition":"full-information","relevant_dimensions":["antennae","wings"],"bee_group":{"antennae":"B","wings":"1","pattern":"X","legs":"X"},"bonus":0.9000000000000012},{"rt":1581.5,"stimulus":"bees-with-color/bee-A1SF.svg","response":0,"trial_type":"image-button-response","trial_index":115,"time_elapsed":418480,"internal_node_id":"0.0-4.0-0.54","subject_id":"5cd052fcd6d8dc0013f84e66","study_id":"6197b3f67c2b5cd3b6d9596a","session_id":"619be788dc48732320e94f6c","condition":"full-information","relevant_dimensions":["antennae","wings"],"bee_group":{"antennae":"B","wings":"1","pattern":"X","legs":"X"},"action":"harvest","summary":"good-harvest","bonus":0.9000000000000012},{"rt":762.0999999940395,"stimulus":"\n                    <p><b>Action: <em>harvest</em></b></p>\n                    <p>This is the bee that you just saw.</p>\n                    <img src=\"bees-with-color/bee-A1SF.svg\" width=\"200\">\n                    <p><span class=\"greenText\"><b>Successful harvest!</b></span><br>Your pay has increased by $0.02. Your bonus pay is now $0.62.</p>\n            ","response":0,"trial_type":"html-button-response","trial_index":116,"time_elapsed":419251,"internal_node_id":"0.0-4.0-1.54","subject_id":"5cd052fcd6d8dc0013f84e66","study_id":"6197b3f67c2b5cd3b6d9596a","session_id":"619be788dc48732320e94f6c","condition":"full-information","relevant_dimensions":["antennae","wings"],"bee_group":{"antennae":"B","wings":"1","pattern":"X","legs":"X"},"bonus":0.9000000000000012},{"rt":3228.300000011921,"stimulus":"bees-with-color/bee-A1DM.svg","response":1,"trial_type":"image-button-response","trial_index":117,"time_elapsed":422488,"internal_node_id":"0.0-4.0-0.55","subject_id":"5cd052fcd6d8dc0013f84e66","study_id":"6197b3f67c2b5cd3b6d9596a","session_id":"619be788dc48732320e94f6c","condition":"full-information","relevant_dimensions":["antennae","wings"],"bee_group":{"antennae":"B","wings":"1","pattern":"X","legs":"X"},"action":"avoid","summary":"bad-avoid","bonus":0.9000000000000012},{"rt":784.6999999880791,"stimulus":"\n                    <p><b>Action: <em>avoid</em></b></p>\n                    <p>This is the bee that you just saw.</p>\n                    <img src=\"bees-with-color/bee-A1DM.svg\" width=\"200\">\n                    <p><span class=\"redText\">Bad choice,</span> the bee was friendly.<br>Your bonus pay is unchanged, and remains at $0.62.</p>\n            ","response":0,"trial_type":"html-button-response","trial_index":118,"time_elapsed":423283,"internal_node_id":"0.0-4.0-1.55","subject_id":"5cd052fcd6d8dc0013f84e66","study_id":"6197b3f67c2b5cd3b6d9596a","session_id":"619be788dc48732320e94f6c","condition":"full-information","relevant_dimensions":["antennae","wings"],"bee_group":{"antennae":"B","wings":"1","pattern":"X","legs":"X"},"bonus":0.9000000000000012},{"rt":1167.5,"stimulus":"bees-with-color/bee-B1DM.svg","response":1,"trial_type":"image-button-response","trial_index":119,"time_elapsed":424473,"internal_node_id":"0.0-4.0-0.56","subject_id":"5cd052fcd6d8dc0013f84e66","study_id":"6197b3f67c2b5cd3b6d9596a","session_id":"619be788dc48732320e94f6c","condition":"full-information","relevant_dimensions":["antennae","wings"],"bee_group":{"antennae":"B","wings":"1","pattern":"X","legs":"X"},"action":"avoid","summary":"good-avoid","bonus":0.9000000000000012},{"rt":591.6999999880791,"stimulus":"\n                    <p><b>Action: <em>avoid</em></b></p>\n                    <p>This is the bee that you just saw.</p>\n                    <img src=\"bees-with-color/bee-B1DM.svg\" width=\"200\">\n                    <p><span class=\"greenText\">Good choice!</span>  This bee would have stung you.<br>Your bonus pay is unchanged, and remains at $0.62.</p>\n            ","response":0,"trial_type":"html-button-response","trial_index":120,"time_elapsed":425074,"internal_node_id":"0.0-4.0-1.56","subject_id":"5cd052fcd6d8dc0013f84e66","study_id":"6197b3f67c2b5cd3b6d9596a","session_id":"619be788dc48732320e94f6c","condition":"full-information","relevant_dimensions":["antennae","wings"],"bee_group":{"antennae":"B","wings":"1","pattern":"X","legs":"X"},"bonus":0.9000000000000012},{"rt":581.4000000059605,"stimulus":"bees-with-color/bee-B1SM.svg","response":0,"trial_type":"image-button-response","trial_index":121,"time_elapsed":425664,"internal_node_id":"0.0-4.0-0.57","subject_id":"5cd052fcd6d8dc0013f84e66","study_id":"6197b3f67c2b5cd3b6d9596a","session_id":"619be788dc48732320e94f6c","condition":"full-information","relevant_dimensions":["antennae","wings"],"bee_group":{"antennae":"B","wings":"1","pattern":"X","legs":"X"},"action":"harvest","summary":"bad-harvest","bonus":0.9000000000000012},{"rt":1048.7000000178814,"stimulus":"\n                    <p><b>Action: <em>harvest</em></b></p>\n                    <p>This is the bee that you just saw.</p>\n                    <img src=\"bees-with-color/bee-B1SM.svg\" width=\"200\">\n                    <p><span class=\"redText\">Bad choice, the bee was angry.</span><br><b>You have been stung!</b><br>Your pay has been decreased by $0.10. Your bonus pay is now $0.52.</p>\n            ","response":0,"trial_type":"html-button-response","trial_index":122,"time_elapsed":426723,"internal_node_id":"0.0-4.0-1.57","subject_id":"5cd052fcd6d8dc0013f84e66","study_id":"6197b3f67c2b5cd3b6d9596a","session_id":"619be788dc48732320e94f6c","condition":"full-information","relevant_dimensions":["antennae","wings"],"bee_group":{"antennae":"B","wings":"1","pattern":"X","legs":"X"},"bonus":0.9000000000000012},{"rt":848.9000000059605,"stimulus":"bees-with-color/bee-A2DM.svg","response":0,"trial_type":"image-button-response","trial_index":123,"time_elapsed":427578,"internal_node_id":"0.0-4.0-0.58","subject_id":"5cd052fcd6d8dc0013f84e66","study_id":"6197b3f67c2b5cd3b6d9596a","session_id":"619be788dc48732320e94f6c","condition":"full-information","relevant_dimensions":["antennae","wings"],"bee_group":{"antennae":"B","wings":"1","pattern":"X","legs":"X"},"action":"harvest","summary":"good-harvest","bonus":0.9000000000000012},{"rt":496.60000002384186,"stimulus":"\n                    <p><b>Action: <em>harvest</em></b></p>\n                    <p>This is the bee that you just saw.</p>\n                    <img src=\"bees-with-color/bee-A2DM.svg\" width=\"200\">\n                    <p><span class=\"greenText\"><b>Successful harvest!</b></span><br>Your pay has increased by $0.02. Your bonus pay is now $0.54.</p>\n            ","response":0,"trial_type":"html-button-response","trial_index":124,"time_elapsed":428082,"internal_node_id":"0.0-4.0-1.58","subject_id":"5cd052fcd6d8dc0013f84e66","study_id":"6197b3f67c2b5cd3b6d9596a","session_id":"619be788dc48732320e94f6c","condition":"full-information","relevant_dimensions":["antennae","wings"],"bee_group":{"antennae":"B","wings":"1","pattern":"X","legs":"X"},"bonus":0.9000000000000012},{"rt":1860.3999999761581,"stimulus":"bees-with-color/bee-A1DF.svg","response":0,"trial_type":"image-button-response","trial_index":125,"time_elapsed":429950,"internal_node_id":"0.0-4.0-0.59","subject_id":"5cd052fcd6d8dc0013f84e66","study_id":"6197b3f67c2b5cd3b6d9596a","session_id":"619be788dc48732320e94f6c","condition":"full-information","relevant_dimensions":["antennae","wings"],"bee_group":{"antennae":"B","wings":"1","pattern":"X","legs":"X"},"action":"harvest","summary":"good-harvest","bonus":0.9000000000000012},{"rt":702,"stimulus":"\n                    <p><b>Action: <em>harvest</em></b></p>\n                    <p>This is the bee that you just saw.</p>\n                    <img src=\"bees-with-color/bee-A1DF.svg\" width=\"200\">\n                    <p><span class=\"greenText\"><b>Successful harvest!</b></span><br>Your pay has increased by $0.02. Your bonus pay is now $0.56.</p>\n            ","response":0,"trial_type":"html-button-response","trial_index":126,"time_elapsed":430659,"internal_node_id":"0.0-4.0-1.59","subject_id":"5cd052fcd6d8dc0013f84e66","study_id":"6197b3f67c2b5cd3b6d9596a","session_id":"619be788dc48732320e94f6c","condition":"full-information","relevant_dimensions":["antennae","wings"],"bee_group":{"antennae":"B","wings":"1","pattern":"X","legs":"X"},"bonus":0.9000000000000012},{"rt":2388,"stimulus":"bees-with-color/bee-B2SF.svg","response":0,"trial_type":"image-button-response","trial_index":127,"time_elapsed":433055,"internal_node_id":"0.0-4.0-0.60","subject_id":"5cd052fcd6d8dc0013f84e66","study_id":"6197b3f67c2b5cd3b6d9596a","session_id":"619be788dc48732320e94f6c","condition":"full-information","relevant_dimensions":["antennae","wings"],"bee_group":{"antennae":"B","wings":"1","pattern":"X","legs":"X"},"action":"harvest","summary":"good-harvest","bonus":0.9000000000000012},{"rt":944.3000000119209,"stimulus":"\n                    <p><b>Action: <em>harvest</em></b></p>\n                    <p>This is the bee that you just saw.</p>\n                    <img src=\"bees-with-color/bee-B2SF.svg\" width=\"200\">\n                    <p><span class=\"greenText\"><b>Successful harvest!</b></span><br>Your pay has increased by $0.02. Your bonus pay is now $0.58.</p>\n            ","response":0,"trial_type":"html-button-response","trial_index":128,"time_elapsed":434006,"internal_node_id":"0.0-4.0-1.60","subject_id":"5cd052fcd6d8dc0013f84e66","study_id":"6197b3f67c2b5cd3b6d9596a","session_id":"619be788dc48732320e94f6c","condition":"full-information","relevant_dimensions":["antennae","wings"],"bee_group":{"antennae":"B","wings":"1","pattern":"X","legs":"X"},"bonus":0.9000000000000012},{"rt":1398.7000000178814,"stimulus":"bees-with-color/bee-B2SM.svg","response":0,"trial_type":"image-button-response","trial_index":129,"time_elapsed":435414,"internal_node_id":"0.0-4.0-0.61","subject_id":"5cd052fcd6d8dc0013f84e66","study_id":"6197b3f67c2b5cd3b6d9596a","session_id":"619be788dc48732320e94f6c","condition":"full-information","relevant_dimensions":["antennae","wings"],"bee_group":{"antennae":"B","wings":"1","pattern":"X","legs":"X"},"action":"harvest","summary":"good-harvest","bonus":0.9000000000000012},{"rt":799.7000000178814,"stimulus":"\n                    <p><b>Action: <em>harvest</em></b></p>\n                    <p>This is the bee that you just saw.</p>\n                    <img src=\"bees-with-color/bee-B2SM.svg\" width=\"200\">\n                    <p><span class=\"greenText\"><b>Successful harvest!</b></span><br>Your pay has increased by $0.02. Your bonus pay is now $0.60.</p>\n            ","response":0,"trial_type":"html-button-response","trial_index":130,"time_elapsed":436220,"internal_node_id":"0.0-4.0-1.61","subject_id":"5cd052fcd6d8dc0013f84e66","study_id":"6197b3f67c2b5cd3b6d9596a","session_id":"619be788dc48732320e94f6c","condition":"full-information","relevant_dimensions":["antennae","wings"],"bee_group":{"antennae":"B","wings":"1","pattern":"X","legs":"X"},"bonus":0.9000000000000012},{"rt":1547.1000000238419,"stimulus":"bees-with-color/bee-A2DF.svg","response":0,"trial_type":"image-button-response","trial_index":131,"time_elapsed":437773,"internal_node_id":"0.0-4.0-0.62","subject_id":"5cd052fcd6d8dc0013f84e66","study_id":"6197b3f67c2b5cd3b6d9596a","session_id":"619be788dc48732320e94f6c","condition":"full-information","relevant_dimensions":["antennae","wings"],"bee_group":{"antennae":"B","wings":"1","pattern":"X","legs":"X"},"action":"harvest","summary":"good-harvest","bonus":0.9000000000000012},{"rt":821.2000000178814,"stimulus":"\n                    <p><b>Action: <em>harvest</em></b></p>\n                    <p>This is the bee that you just saw.</p>\n                    <img src=\"bees-with-color/bee-A2DF.svg\" width=\"200\">\n                    <p><span class=\"greenText\"><b>Successful harvest!</b></span><br>Your pay has increased by $0.02. Your bonus pay is now $0.62.</p>\n            ","response":0,"trial_type":"html-button-response","trial_index":132,"time_elapsed":438602,"internal_node_id":"0.0-4.0-1.62","subject_id":"5cd052fcd6d8dc0013f84e66","study_id":"6197b3f67c2b5cd3b6d9596a","session_id":"619be788dc48732320e94f6c","condition":"full-information","relevant_dimensions":["antennae","wings"],"bee_group":{"antennae":"B","wings":"1","pattern":"X","legs":"X"},"bonus":0.9000000000000012},{"rt":2151.699999988079,"stimulus":"bees-with-color/bee-A1SM.svg","response":0,"trial_type":"image-button-response","trial_index":133,"time_elapsed":440759,"internal_node_id":"0.0-4.0-0.63","subject_id":"5cd052fcd6d8dc0013f84e66","study_id":"6197b3f67c2b5cd3b6d9596a","session_id":"619be788dc48732320e94f6c","condition":"full-information","relevant_dimensions":["antennae","wings"],"bee_group":{"antennae":"B","wings":"1","pattern":"X","legs":"X"},"action":"harvest","summary":"good-harvest","bonus":0.9000000000000012},{"rt":702.7999999821186,"stimulus":"\n                    <p><b>Action: <em>harvest</em></b></p>\n                    <p>This is the bee that you just saw.</p>\n                    <img src=\"bees-with-color/bee-A1SM.svg\" width=\"200\">\n                    <p><span class=\"greenText\"><b>Successful harvest!</b></span><br>Your pay has increased by $0.02. Your bonus pay is now $0.64.</p>\n            ","response":0,"trial_type":"html-button-response","trial_index":134,"time_elapsed":441469,"internal_node_id":"0.0-4.0-1.63","subject_id":"5cd052fcd6d8dc0013f84e66","study_id":"6197b3f67c2b5cd3b6d9596a","session_id":"619be788dc48732320e94f6c","condition":"full-information","relevant_dimensions":["antennae","wings"],"bee_group":{"antennae":"B","wings":"1","pattern":"X","legs":"X"},"bonus":0.9000000000000012},{"rt":8907.40000000596,"stimulus":"You have completed the first part of this experiment.<br><br>You will now begin a shorter second part, in which you will receive no feedback.<br>The same rules regarding bonus pay apply.<br><br>Press any key to begin.","response":" ","trial_type":"html-keyboard-response","trial_index":135,"time_elapsed":450386,"internal_node_id":"0.0-5.0","subject_id":"5cd052fcd6d8dc0013f84e66","study_id":"6197b3f67c2b5cd3b6d9596a","session_id":"619be788dc48732320e94f6c","condition":"full-information","relevant_dimensions":["antennae","wings"],"bee_group":{"antennae":"B","wings":"1","pattern":"X","legs":"X"},"bonus":0.9000000000000012},{"rt":2636.9000000059605,"stimulus":"bees-with-color/bee-B2SM.svg","response":0,"trial_type":"image-button-response","trial_index":136,"time_elapsed":453050,"internal_node_id":"0.0-6.0-0.0","subject_id":"5cd052fcd6d8dc0013f84e66","study_id":"6197b3f67c2b5cd3b6d9596a","session_id":"619be788dc48732320e94f6c","condition":"full-information","relevant_dimensions":["antennae","wings"],"bee_group":{"antennae":"B","wings":"1","pattern":"X","legs":"X"},"bonus":0.9000000000000012},{"rt":3299.5,"stimulus":"bees-with-color/bee-B1SF.svg","response":1,"trial_type":"image-button-response","trial_index":137,"time_elapsed":456362,"internal_node_id":"0.0-6.0-0.1","subject_id":"5cd052fcd6d8dc0013f84e66","study_id":"6197b3f67c2b5cd3b6d9596a","session_id":"619be788dc48732320e94f6c","condition":"full-information","relevant_dimensions":["antennae","wings"],"bee_group":{"antennae":"B","wings":"1","pattern":"X","legs":"X"},"bonus":0.9000000000000012},{"rt":1488.300000011921,"stimulus":"bees-with-color/bee-A2SM.svg","response":0,"trial_type":"image-button-response","trial_index":138,"time_elapsed":457867,"internal_node_id":"0.0-6.0-0.2","subject_id":"5cd052fcd6d8dc0013f84e66","study_id":"6197b3f67c2b5cd3b6d9596a","session_id":"619be788dc48732320e94f6c","condition":"full-information","relevant_dimensions":["antennae","wings"],"bee_group":{"antennae":"B","wings":"1","pattern":"X","legs":"X"},"bonus":0.9000000000000012},{"rt":1729.300000011921,"stimulus":"bees-with-color/bee-A1DF.svg","response":0,"trial_type":"image-button-response","trial_index":139,"time_elapsed":459607,"internal_node_id":"0.0-6.0-0.3","subject_id":"5cd052fcd6d8dc0013f84e66","study_id":"6197b3f67c2b5cd3b6d9596a","session_id":"619be788dc48732320e94f6c","condition":"full-information","relevant_dimensions":["antennae","wings"],"bee_group":{"antennae":"B","wings":"1","pattern":"X","legs":"X"},"bonus":0.9000000000000012},{"rt":2101.9000000059605,"stimulus":"bees-with-color/bee-A2SF.svg","response":0,"trial_type":"image-button-response","trial_index":140,"time_elapsed":461720,"internal_node_id":"0.0-6.0-0.4","subject_id":"5cd052fcd6d8dc0013f84e66","study_id":"6197b3f67c2b5cd3b6d9596a","session_id":"619be788dc48732320e94f6c","condition":"full-information","relevant_dimensions":["antennae","wings"],"bee_group":{"antennae":"B","wings":"1","pattern":"X","legs":"X"},"bonus":0.9000000000000012},{"rt":1699.7999999821186,"stimulus":"bees-with-color/bee-B1DM.svg","response":0,"trial_type":"image-button-response","trial_index":141,"time_elapsed":463432,"internal_node_id":"0.0-6.0-0.5","subject_id":"5cd052fcd6d8dc0013f84e66","study_id":"6197b3f67c2b5cd3b6d9596a","session_id":"619be788dc48732320e94f6c","condition":"full-information","relevant_dimensions":["antennae","wings"],"bee_group":{"antennae":"B","wings":"1","pattern":"X","legs":"X"},"bonus":0.9000000000000012},{"rt":1352.5,"stimulus":"bees-with-color/bee-A1SM.svg","response":0,"trial_type":"image-button-response","trial_index":142,"time_elapsed":464795,"internal_node_id":"0.0-6.0-0.6","subject_id":"5cd052fcd6d8dc0013f84e66","study_id":"6197b3f67c2b5cd3b6d9596a","session_id":"619be788dc48732320e94f6c","condition":"full-information","relevant_dimensions":["antennae","wings"],"bee_group":{"antennae":"B","wings":"1","pattern":"X","legs":"X"},"bonus":0.9000000000000012},{"rt":2931.5999999940395,"stimulus":"bees-with-color/bee-A2DF.svg","response":0,"trial_type":"image-button-response","trial_index":143,"time_elapsed":467739,"internal_node_id":"0.0-6.0-0.7","subject_id":"5cd052fcd6d8dc0013f84e66","study_id":"6197b3f67c2b5cd3b6d9596a","session_id":"619be788dc48732320e94f6c","condition":"full-information","relevant_dimensions":["antennae","wings"],"bee_group":{"antennae":"B","wings":"1","pattern":"X","legs":"X"},"bonus":0.9000000000000012},{"rt":1807.9000000059605,"stimulus":"bees-with-color/bee-B2DF.svg","response":1,"trial_type":"image-button-response","trial_index":144,"time_elapsed":469561,"internal_node_id":"0.0-6.0-0.8","subject_id":"5cd052fcd6d8dc0013f84e66","study_id":"6197b3f67c2b5cd3b6d9596a","session_id":"619be788dc48732320e94f6c","condition":"full-information","relevant_dimensions":["antennae","wings"],"bee_group":{"antennae":"B","wings":"1","pattern":"X","legs":"X"},"bonus":0.9000000000000012},{"rt":1186.800000011921,"stimulus":"bees-with-color/bee-A1DM.svg","response":0,"trial_type":"image-button-response","trial_index":145,"time_elapsed":470760,"internal_node_id":"0.0-6.0-0.9","subject_id":"5cd052fcd6d8dc0013f84e66","study_id":"6197b3f67c2b5cd3b6d9596a","session_id":"619be788dc48732320e94f6c","condition":"full-information","relevant_dimensions":["antennae","wings"],"bee_group":{"antennae":"B","wings":"1","pattern":"X","legs":"X"},"bonus":0.9000000000000012},{"rt":1763.0999999940395,"stimulus":"bees-with-color/bee-B1SM.svg","response":0,"trial_type":"image-button-response","trial_index":146,"time_elapsed":472535,"internal_node_id":"0.0-6.0-0.10","subject_id":"5cd052fcd6d8dc0013f84e66","study_id":"6197b3f67c2b5cd3b6d9596a","session_id":"619be788dc48732320e94f6c","condition":"full-information","relevant_dimensions":["antennae","wings"],"bee_group":{"antennae":"B","wings":"1","pattern":"X","legs":"X"},"bonus":0.9000000000000012},{"rt":1419.5,"stimulus":"bees-with-color/bee-B2SF.svg","response":0,"trial_type":"image-button-response","trial_index":147,"time_elapsed":473966,"internal_node_id":"0.0-6.0-0.11","subject_id":"5cd052fcd6d8dc0013f84e66","study_id":"6197b3f67c2b5cd3b6d9596a","session_id":"619be788dc48732320e94f6c","condition":"full-information","relevant_dimensions":["antennae","wings"],"bee_group":{"antennae":"B","wings":"1","pattern":"X","legs":"X"},"bonus":0.9000000000000012},{"rt":1123.699999988079,"stimulus":"bees-with-color/bee-A2DM.svg","response":0,"trial_type":"image-button-response","trial_index":148,"time_elapsed":475098,"internal_node_id":"0.0-6.0-0.12","subject_id":"5cd052fcd6d8dc0013f84e66","study_id":"6197b3f67c2b5cd3b6d9596a","session_id":"619be788dc48732320e94f6c","condition":"full-information","relevant_dimensions":["antennae","wings"],"bee_group":{"antennae":"B","wings":"1","pattern":"X","legs":"X"},"bonus":0.9000000000000012},{"rt":1407.9000000059605,"stimulus":"bees-with-color/bee-B1DF.svg","response":1,"trial_type":"image-button-response","trial_index":149,"time_elapsed":476518,"internal_node_id":"0.0-6.0-0.13","subject_id":"5cd052fcd6d8dc0013f84e66","study_id":"6197b3f67c2b5cd3b6d9596a","session_id":"619be788dc48732320e94f6c","condition":"full-information","relevant_dimensions":["antennae","wings"],"bee_group":{"antennae":"B","wings":"1","pattern":"X","legs":"X"},"bonus":0.9000000000000012},{"rt":1239.5,"stimulus":"bees-with-color/bee-A1SF.svg","response":0,"trial_type":"image-button-response","trial_index":150,"time_elapsed":477771,"internal_node_id":"0.0-6.0-0.14","subject_id":"5cd052fcd6d8dc0013f84e66","study_id":"6197b3f67c2b5cd3b6d9596a","session_id":"619be788dc48732320e94f6c","condition":"full-information","relevant_dimensions":["antennae","wings"],"bee_group":{"antennae":"B","wings":"1","pattern":"X","legs":"X"},"bonus":0.9000000000000012},{"rt":3933.199999988079,"stimulus":"bees-with-color/bee-B2DM.svg","response":0,"trial_type":"image-button-response","trial_index":151,"time_elapsed":481717,"internal_node_id":"0.0-6.0-0.15","subject_id":"5cd052fcd6d8dc0013f84e66","study_id":"6197b3f67c2b5cd3b6d9596a","session_id":"619be788dc48732320e94f6c","condition":"full-information","relevant_dimensions":["antennae","wings"],"bee_group":{"antennae":"B","wings":"1","pattern":"X","legs":"X"},"bonus":0.9000000000000012},{"rt":1096.800000011921,"stimulus":"bees-with-color/bee-B1SF.svg","response":1,"trial_type":"image-button-response","trial_index":152,"time_elapsed":482825,"internal_node_id":"0.0-6.0-0.16","subject_id":"5cd052fcd6d8dc0013f84e66","study_id":"6197b3f67c2b5cd3b6d9596a","session_id":"619be788dc48732320e94f6c","condition":"full-information","relevant_dimensions":["antennae","wings"],"bee_group":{"antennae":"B","wings":"1","pattern":"X","legs":"X"},"bonus":0.9000000000000012},{"rt":1699,"stimulus":"bees-with-color/bee-A1SF.svg","response":0,"trial_type":"image-button-response","trial_index":153,"time_elapsed":484518,"internal_node_id":"0.0-6.0-0.17","subject_id":"5cd052fcd6d8dc0013f84e66","study_id":"6197b3f67c2b5cd3b6d9596a","session_id":"619be788dc48732320e94f6c","condition":"full-information","relevant_dimensions":["antennae","wings"],"bee_group":{"antennae":"B","wings":"1","pattern":"X","legs":"X"},"bonus":0.9000000000000012},{"rt":1744.0999999940395,"stimulus":"bees-with-color/bee-A1DF.svg","response":0,"trial_type":"image-button-response","trial_index":154,"time_elapsed":486273,"internal_node_id":"0.0-6.0-0.18","subject_id":"5cd052fcd6d8dc0013f84e66","study_id":"6197b3f67c2b5cd3b6d9596a","session_id":"619be788dc48732320e94f6c","condition":"full-information","relevant_dimensions":["antennae","wings"],"bee_group":{"antennae":"B","wings":"1","pattern":"X","legs":"X"},"bonus":0.9000000000000012},{"rt":1120.4000000059605,"stimulus":"bees-with-color/bee-B1DM.svg","response":1,"trial_type":"image-button-response","trial_index":155,"time_elapsed":487403,"internal_node_id":"0.0-6.0-0.19","subject_id":"5cd052fcd6d8dc0013f84e66","study_id":"6197b3f67c2b5cd3b6d9596a","session_id":"619be788dc48732320e94f6c","condition":"full-information","relevant_dimensions":["antennae","wings"],"bee_group":{"antennae":"B","wings":"1","pattern":"X","legs":"X"},"bonus":0.9000000000000012},{"rt":1014.2000000178814,"stimulus":"bees-with-color/bee-B2DF.svg","response":0,"trial_type":"image-button-response","trial_index":156,"time_elapsed":488428,"internal_node_id":"0.0-6.0-0.20","subject_id":"5cd052fcd6d8dc0013f84e66","study_id":"6197b3f67c2b5cd3b6d9596a","session_id":"619be788dc48732320e94f6c","condition":"full-information","relevant_dimensions":["antennae","wings"],"bee_group":{"antennae":"B","wings":"1","pattern":"X","legs":"X"},"bonus":0.9000000000000012},{"rt":712.5,"stimulus":"bees-with-color/bee-B2SF.svg","response":0,"trial_type":"image-but