[{"success":true,"trial_type":"fullscreen","trial_index":0,"time_elapsed":4350,"internal_node_id":"0.0-0.0","subject_id":"5e04595a4fa02aefdb9c9ced","study_id":"60edd13110225f80f9f3709b","session_id":"6196c1f19467f4411a0e3470","condition":"contingent","relevant_dimensions":["wings","legs"],"bee_group":{"antennae":"X","wings":"1","pattern":"X","legs":"F"},"bonus":1.020000000000001},{"success":true,"timeout":false,"failed_images":[],"failed_audio":[],"failed_video":[],"trial_type":"preload","trial_index":1,"time_elapsed":5921,"internal_node_id":"0.0-1.0","subject_id":"5e04595a4fa02aefdb9c9ced","study_id":"60edd13110225f80f9f3709b","session_id":"6196c1f19467f4411a0e3470","condition":"contingent","relevant_dimensions":["wings","legs"],"bee_group":{"antennae":"X","wings":"1","pattern":"X","legs":"F"},"bonus":1.020000000000001},{"rt":2204.5,"stimulus":"Welcome! Press any key to begin.","response":" ","trial_type":"html-keyboard-response","trial_index":2,"time_elapsed":8126,"internal_node_id":"0.0-2.0","subject_id":"5e04595a4fa02aefdb9c9ced","study_id":"60edd13110225f80f9f3709b","session_id":"6196c1f19467f4411a0e3470","condition":"contingent","relevant_dimensions":["wings","legs"],"bee_group":{"antennae":"X","wings":"1","pattern":"X","legs":"F"},"bonus":1.020000000000001},{"view_history":[{"page_index":0,"viewing_time":4633},{"page_index":1,"viewing_time":13287.199999988079},{"page_index":2,"viewing_time":9160.300000011921},{"page_index":3,"viewing_time":15471.799999952316},{"page_index":4,"viewing_time":10824.400000035763},{"page_index":5,"viewing_time":4432},{"page_index":6,"viewing_time":8208.199999988079},{"page_index":7,"viewing_time":17928.69999998808},{"page_index":8,"viewing_time":3696.300000011921},{"page_index":9,"viewing_time":2871.899999976158},{"page_index":10,"viewing_time":4535.5},{"page_index":11,"viewing_time":6327.900000035763},{"page_index":12,"viewing_time":8056.5},{"page_index":13,"viewing_time":1495.5999999642372},{"page_index":14,"viewing_time":2160.300000011921}],"rt":113089.79999995232,"trial_type":"instructions","trial_index":3,"time_elapsed":121216,"internal_node_id":"0.0-3.0-0.0","subject_id":"5e04595a4fa02aefdb9c9ced","study_id":"60edd13110225f80f9f3709b","session_id":"6196c1f19467f4411a0e3470","condition":"contingent","relevant_dimensions":["wings","legs"],"bee_group":{"antennae":"X","wings":"1","pattern":"X","legs":"F"},"bonus":1.020000000000001},{"rt":12853.100000023842,"response":{"Q0":["Two or six legs","Stripes or spots on body","Single or double wings","Antennae or no antennae"]},"question_order":[0],"trial_type":"survey-multi-select","trial_index":4,"time_elapsed":134073,"internal_node_id":"0.0-3.0-1.0","subject_id":"5e04595a4fa02aefdb9c9ced","study_id":"60edd13110225f80f9f3709b","session_id":"6196c1f19467f4411a0e3470","condition":"contingent","relevant_dimensions":["wings","legs"],"bee_group":{"antennae":"X","wings":"1","pattern":"X","legs":"F"},"correct":true,"bonus":1.020000000000001},{"rt":17662.599999964237,"response":{"Q1":"No.","Q2":"Based on the four features of the bee.","Q3":"You do not learn if it was friendly or dangerous, and do not alter your bonus."},"question_order":[0,1,2],"trial_type":"survey-multi-choice","trial_index":5,"time_elapsed":151737,"internal_node_id":"0.0-3.0-2.0","subject_id":"5e04595a4fa02aefdb9c9ced","study_id":"60edd13110225f80f9f3709b","session_id":"6196c1f19467f4411a0e3470","condition":"contingent","relevant_dimensions":["wings","legs"],"bee_group":{"antennae":"X","wings":"1","pattern":"X","legs":"F"},"correct":true,"bonus":1.020000000000001},{"rt":2854.699999988079,"stimulus":"<p>Congrats, you got everything right<br>When you're ready, click the button below to continue to the experiment.</p>","response":0,"trial_type":"html-button-response","trial_index":6,"time_elapsed":154593,"internal_node_id":"0.0-3.0-3.0","subject_id":"5e04595a4fa02aefdb9c9ced","study_id":"60edd13110225f80f9f3709b","session_id":"6196c1f19467f4411a0e3470","condition":"contingent","relevant_dimensions":["wings","legs"],"bee_group":{"antennae":"X","wings":"1","pattern":"X","legs":"F"},"bonus":1.020000000000001},{"rt":17677.899999976158,"stimulus":"bees-with-color/bee-B1DF.svg","response":0,"trial_type":"image-button-response","trial_index":7,"time_elapsed":172272,"internal_node_id":"0.0-4.0-0.0","subject_id":"5e04595a4fa02aefdb9c9ced","study_id":"60edd13110225f80f9f3709b","session_id":"6196c1f19467f4411a0e3470","condition":"contingent","relevant_dimensions":["wings","legs"],"bee_group":{"antennae":"X","wings":"1","pattern":"X","legs":"F"},"action":"harvest","summary":"bad-harvest","bonus":1.020000000000001},{"rt":6653.899999976158,"stimulus":"\n                    <p><b>Action: <em>harvest</em></b></p>\n                    <p>This is the bee that you just saw.</p>\n                    <img src=\"bees-with-color/bee-B1DF.svg\" width=\"200\">\n                    <p><span class=\"redText\">Bad choice, the bee was angry.</span><br><b>You have been stung!</b><br>Your pay has been decreased by $0.10. Your bonus pay is now $0.44.</p>\n            ","response":0,"trial_type":"html-button-response","trial_index":8,"time_elapsed":178928,"internal_node_id":"0.0-4.0-1.0","subject_id":"5e04595a4fa02aefdb9c9ced","study_id":"60edd13110225f80f9f3709b","session_id":"6196c1f19467f4411a0e3470","condition":"contingent","relevant_dimensions":["wings","legs"],"bee_group":{"antennae":"X","wings":"1","pattern":"X","legs":"F"},"bonus":1.020000000000001},{"rt":3055.100000023842,"stimulus":"bees-with-color/bee-B2DF.svg","response":1,"trial_type":"image-button-response","trial_index":9,"time_elapsed":181984,"internal_node_id":"0.0-4.0-0.1","subject_id":"5e04595a4fa02aefdb9c9ced","study_id":"60edd13110225f80f9f3709b","session_id":"6196c1f19467f4411a0e3470","condition":"contingent","relevant_dimensions":["wings","legs"],"bee_group":{"antennae":"X","wings":"1","pattern":"X","legs":"F"},"action":"avoid","summary":"bad-avoid","bonus":1.020000000000001},{"rt":2998.699999988079,"stimulus":"\n                    <p><b>Action: <em>avoid</em></b></p>\n                    <p>This is the bee that you just saw.</p>\n                    <img src=\"bees-with-color/bee-B2DF.svg\" width=\"200\">\n                    <p><br>Your bonus pay is unchanged, and remains at $0.44.</p>\n            ","response":0,"trial_type":"html-button-response","trial_index":10,"time_elapsed":184985,"internal_node_id":"0.0-4.0-1.1","subject_id":"5e04595a4fa02aefdb9c9ced","study_id":"60edd13110225f80f9f3709b","session_id":"6196c1f19467f4411a0e3470","condition":"contingent","relevant_dimensions":["wings","legs"],"bee_group":{"antennae":"X","wings":"1","pattern":"X","legs":"F"},"bonus":1.020000000000001},{"rt":3782.399999976158,"stimulus":"bees-with-color/bee-A2SF.svg","response":0,"trial_type":"image-button-response","trial_index":11,"time_elapsed":188768,"internal_node_id":"0.0-4.0-0.2","subject_id":"5e04595a4fa02aefdb9c9ced","study_id":"60edd13110225f80f9f3709b","session_id":"6196c1f19467f4411a0e3470","condition":"contingent","relevant_dimensions":["wings","legs"],"bee_group":{"antennae":"X","wings":"1","pattern":"X","legs":"F"},"action":"harvest","summary":"good-harvest","bonus":1.020000000000001},{"rt":9846.899999976158,"stimulus":"\n                    <p><b>Action: <em>harvest</em></b></p>\n                    <p>This is the bee that you just saw.</p>\n                    <img src=\"bees-with-color/bee-A2SF.svg\" width=\"200\">\n                    <p><span class=\"greenText\"><b>Successful harvest!</b></span><br>Your pay has increased by $0.02. Your bonus pay is now $0.46.</p>\n            ","response":0,"trial_type":"html-button-response","trial_index":12,"time_elapsed":198616,"internal_node_id":"0.0-4.0-1.2","subject_id":"5e04595a4fa02aefdb9c9ced","study_id":"60edd13110225f80f9f3709b","session_id":"6196c1f19467f4411a0e3470","condition":"contingent","relevant_dimensions":["wings","legs"],"bee_group":{"antennae":"X","wings":"1","pattern":"X","legs":"F"},"bonus":1.020000000000001},{"rt":5351.899999976158,"stimulus":"bees-with-color/bee-B2SF.svg","response":0,"trial_type":"image-button-response","trial_index":13,"time_elapsed":203969,"internal_node_id":"0.0-4.0-0.3","subject_id":"5e04595a4fa02aefdb9c9ced","study_id":"60edd13110225f80f9f3709b","session_id":"6196c1f19467f4411a0e3470","condition":"contingent","relevant_dimensions":["wings","legs"],"bee_group":{"antennae":"X","wings":"1","pattern":"X","legs":"F"},"action":"harvest","summary":"good-harvest","bonus":1.020000000000001},{"rt":4149.700000047684,"stimulus":"\n                    <p><b>Action: <em>harvest</em></b></p>\n                    <p>This is the bee that you just saw.</p>\n                    <img src=\"bees-with-color/bee-B2SF.svg\" width=\"200\">\n                    <p><span class=\"greenText\"><b>Successful harvest!</b></span><br>Your pay has increased by $0.02. Your bonus pay is now $0.48.</p>\n            ","response":0,"trial_type":"html-button-response","trial_index":14,"time_elapsed":208121,"internal_node_id":"0.0-4.0-1.3","subject_id":"5e04595a4fa02aefdb9c9ced","study_id":"60edd13110225f80f9f3709b","session_id":"6196c1f19467f4411a0e3470","condition":"contingent","relevant_dimensions":["wings","legs"],"bee_group":{"antennae":"X","wings":"1","pattern":"X","legs":"F"},"bonus":1.020000000000001},{"rt":3310.5,"stimulus":"bees-with-color/bee-A1DM.svg","response":1,"trial_type":"image-button-response","trial_index":15,"time_elapsed":211432,"internal_node_id":"0.0-4.0-0.4","subject_id":"5e04595a4fa02aefdb9c9ced","study_id":"60edd13110225f80f9f3709b","session_id":"6196c1f19467f4411a0e3470","condition":"contingent","relevant_dimensions":["wings","legs"],"bee_group":{"antennae":"X","wings":"1","pattern":"X","legs":"F"},"action":"avoid","summary":"bad-avoid","bonus":1.020000000000001},{"rt":1734.7999999523163,"stimulus":"\n                    <p><b>Action: <em>avoid</em></b></p>\n                    <p>This is the bee that you just saw.</p>\n                    <img src=\"bees-with-color/bee-A1DM.svg\" width=\"200\">\n                    <p><br>Your bonus pay is unchanged, and remains at $0.48.</p>\n            ","response":0,"trial_type":"html-button-response","trial_index":16,"time_elapsed":213168,"internal_node_id":"0.0-4.0-1.4","subject_id":"5e04595a4fa02aefdb9c9ced","study_id":"60edd13110225f80f9f3709b","session_id":"6196c1f19467f4411a0e3470","condition":"contingent","relevant_dimensions":["wings","legs"],"bee_group":{"antennae":"X","wings":"1","pattern":"X","legs":"F"},"bonus":1.020000000000001},{"rt":6198.199999988079,"stimulus":"bees-with-color/bee-A1SF.svg","response":0,"trial_type":"image-button-response","trial_index":17,"time_elapsed":219368,"internal_node_id":"0.0-4.0-0.5","subject_id":"5e04595a4fa02aefdb9c9ced","study_id":"60edd13110225f80f9f3709b","session_id":"6196c1f19467f4411a0e3470","condition":"contingent","relevant_dimensions":["wings","legs"],"bee_group":{"antennae":"X","wings":"1","pattern":"X","legs":"F"},"action":"harvest","summary":"bad-harvest","bonus":1.020000000000001},{"rt":8048.199999988079,"stimulus":"\n                    <p><b>Action: <em>harvest</em></b></p>\n                    <p>This is the bee that you just saw.</p>\n                    <img src=\"bees-with-color/bee-A1SF.svg\" width=\"200\">\n                    <p><span class=\"redText\">Bad choice, the bee was angry.</span><br><b>You have been stung!</b><br>Your pay has been decreased by $0.10. Your bonus pay is now $0.38.</p>\n            ","response":0,"trial_type":"html-button-response","trial_index":18,"time_elapsed":227418,"internal_node_id":"0.0-4.0-1.5","subject_id":"5e04595a4fa02aefdb9c9ced","study_id":"60edd13110225f80f9f3709b","session_id":"6196c1f19467f4411a0e3470","condition":"contingent","relevant_dimensions":["wings","legs"],"bee_group":{"antennae":"X","wings":"1","pattern":"X","legs":"F"},"bonus":1.020000000000001},{"rt":3279.100000023842,"stimulus":"bees-with-color/bee-A2DM.svg","response":0,"trial_type":"image-button-response","trial_index":19,"time_elapsed":230698,"internal_node_id":"0.0-4.0-0.6","subject_id":"5e04595a4fa02aefdb9c9ced","study_id":"60edd13110225f80f9f3709b","session_id":"6196c1f19467f4411a0e3470","condition":"contingent","relevant_dimensions":["wings","legs"],"bee_group":{"antennae":"X","wings":"1","pattern":"X","legs":"F"},"action":"harvest","summary":"good-harvest","bonus":1.020000000000001},{"rt":3566.600000023842,"stimulus":"\n                    <p><b>Action: <em>harvest</em></b></p>\n                    <p>This is the bee that you just saw.</p>\n                    <img src=\"bees-with-color/bee-A2DM.svg\" width=\"200\">\n                    <p><span class=\"greenText\"><b>Successful harvest!</b></span><br>Your pay has increased by $0.02. Your bonus pay is now $0.40.</p>\n            ","response":0,"trial_type":"html-button-response","trial_index":20,"time_elapsed":234266,"internal_node_id":"0.0-4.0-1.6","subject_id":"5e04595a4fa02aefdb9c9ced","study_id":"60edd13110225f80f9f3709b","session_id":"6196c1f19467f4411a0e3470","condition":"contingent","relevant_dimensions":["wings","legs"],"bee_group":{"antennae":"X","wings":"1","pattern":"X","legs":"F"},"bonus":1.020000000000001},{"rt":1759,"stimulus":"bees-with-color/bee-B1DM.svg","response":1,"trial_type":"image-button-response","trial_index":21,"time_elapsed":236026,"internal_node_id":"0.0-4.0-0.7","subject_id":"5e04595a4fa02aefdb9c9ced","study_id":"60edd13110225f80f9f3709b","session_id":"6196c1f19467f4411a0e3470","condition":"contingent","relevant_dimensions":["wings","legs"],"bee_group":{"antennae":"X","wings":"1","pattern":"X","legs":"F"},"action":"avoid","summary":"bad-avoid","bonus":1.020000000000001},{"rt":1398.8999999761581,"stimulus":"\n                    <p><b>Action: <em>avoid</em></b></p>\n                    <p>This is the bee that you just saw.</p>\n                    <img src=\"bees-with-color/bee-B1DM.svg\" width=\"200\">\n                    <p><br>Your bonus pay is unchanged, and remains at $0.40.</p>\n            ","response":0,"trial_type":"html-button-response","trial_index":22,"time_elapsed":237426,"internal_node_id":"0.0-4.0-1.7","subject_id":"5e04595a4fa02aefdb9c9ced","study_id":"60edd13110225f80f9f3709b","session_id":"6196c1f19467f4411a0e3470","condition":"contingent","relevant_dimensions":["wings","legs"],"bee_group":{"antennae":"X","wings":"1","pattern":"X","legs":"F"},"bonus":1.020000000000001},{"rt":3207.199999988079,"stimulus":"bees-with-color/bee-A2SM.svg","response":0,"trial_type":"image-button-response","trial_index":23,"time_elapsed":240634,"internal_node_id":"0.0-4.0-0.8","subject_id":"5e04595a4fa02aefdb9c9ced","study_id":"60edd13110225f80f9f3709b","session_id":"6196c1f19467f4411a0e3470","condition":"contingent","relevant_dimensions":["wings","legs"],"bee_group":{"antennae":"X","wings":"1","pattern":"X","legs":"F"},"action":"harvest","summary":"good-harvest","bonus":1.020000000000001},{"rt":1686.800000011921,"stimulus":"\n                    <p><b>Action: <em>harvest</em></b></p>\n                    <p>This is the bee that you just saw.</p>\n                    <img src=\"bees-with-color/bee-A2SM.svg\" width=\"200\">\n                    <p><span class=\"greenText\"><b>Successful harvest!</b></span><br>Your pay has increased by $0.02. Your bonus pay is now $0.42.</p>\n            ","response":0,"trial_type":"html-button-response","trial_index":24,"time_elapsed":242322,"internal_node_id":"0.0-4.0-1.8","subject_id":"5e04595a4fa02aefdb9c9ced","study_id":"60edd13110225f80f9f3709b","session_id":"6196c1f19467f4411a0e3470","condition":"contingent","relevant_dimensions":["wings","legs"],"bee_group":{"antennae":"X","wings":"1","pattern":"X","legs":"F"},"bonus":1.020000000000001},{"rt":1550.2999999523163,"stimulus":"bees-with-color/bee-B1SF.svg","response":1,"trial_type":"image-button-response","trial_index":25,"time_elapsed":243874,"internal_node_id":"0.0-4.0-0.9","subject_id":"5e04595a4fa02aefdb9c9ced","study_id":"60edd13110225f80f9f3709b","session_id":"6196c1f19467f4411a0e3470","condition":"contingent","relevant_dimensions":["wings","legs"],"bee_group":{"antennae":"X","wings":"1","pattern":"X","legs":"F"},"action":"avoid","summary":"good-avoid","bonus":1.020000000000001},{"rt":2007.6000000238419,"stimulus":"\n                    <p><b>Action: <em>avoid</em></b></p>\n                    <p>This is the bee that you just saw.</p>\n                    <img src=\"bees-with-color/bee-B1SF.svg\" width=\"200\">\n                    <p><br>Your bonus pay is unchanged, and remains at $0.42.</p>\n            ","response":0,"trial_type":"html-button-response","trial_index":26,"time_elapsed":245882,"internal_node_id":"0.0-4.0-1.9","subject_id":"5e04595a4fa02aefdb9c9ced","study_id":"60edd13110225f80f9f3709b","session_id":"6196c1f19467f4411a0e3470","condition":"contingent","relevant_dimensions":["wings","legs"],"bee_group":{"antennae":"X","wings":"1","pattern":"X","legs":"F"},"bonus":1.020000000000001},{"rt":16959.299999952316,"stimulus":"bees-with-color/bee-A1SM.svg","response":0,"trial_type":"image-button-response","trial_index":27,"time_elapsed":262843,"internal_node_id":"0.0-4.0-0.10","subject_id":"5e04595a4fa02aefdb9c9ced","study_id":"60edd13110225f80f9f3709b","session_id":"6196c1f19467f4411a0e3470","condition":"contingent","relevant_dimensions":["wings","legs"],"bee_group":{"antennae":"X","wings":"1","pattern":"X","legs":"F"},"action":"harvest","summary":"good-harvest","bonus":1.020000000000001},{"rt":12621.900000035763,"stimulus":"\n                    <p><b>Action: <em>harvest</em></b></p>\n                    <p>This is the bee that you just saw.</p>\n                    <img src=\"bees-with-color/bee-A1SM.svg\" width=\"200\">\n                    <p><span class=\"greenText\"><b>Successful harvest!</b></span><br>Your pay has increased by $0.02. Your bonus pay is now $0.44.</p>\n            ","response":0,"trial_type":"html-button-response","trial_index":28,"time_elapsed":275466,"internal_node_id":"0.0-4.0-1.10","subject_id":"5e04595a4fa02aefdb9c9ced","study_id":"60edd13110225f80f9f3709b","session_id":"6196c1f19467f4411a0e3470","condition":"contingent","relevant_dimensions":["wings","legs"],"bee_group":{"antennae":"X","wings":"1","pattern":"X","legs":"F"},"bonus":1.020000000000001},{"rt":14749.900000035763,"stimulus":"bees-with-color/bee-B2SM.svg","response":0,"trial_type":"image-button-response","trial_index":29,"time_elapsed":290217,"internal_node_id":"0.0-4.0-0.11","subject_id":"5e04595a4fa02aefdb9c9ced","study_id":"60edd13110225f80f9f3709b","session_id":"6196c1f19467f4411a0e3470","condition":"contingent","relevant_dimensions":["wings","legs"],"bee_group":{"antennae":"X","wings":"1","pattern":"X","legs":"F"},"action":"harvest","summary":"good-harvest","bonus":1.020000000000001},{"rt":10775.699999988079,"stimulus":"\n                    <p><b>Action: <em>harvest</em></b></p>\n                    <p>This is the bee that you just saw.</p>\n                    <img src=\"bees-with-color/bee-B2SM.svg\" width=\"200\">\n                    <p><span class=\"greenText\"><b>Successful harvest!</b></span><br>Your pay has increased by $0.02. Your bonus pay is now $0.46.</p>\n            ","response":0,"trial_type":"html-button-response","trial_index":30,"time_elapsed":300994,"internal_node_id":"0.0-4.0-1.11","subject_id":"5e04595a4fa02aefdb9c9ced","study_id":"60edd13110225f80f9f3709b","session_id":"6196c1f19467f4411a0e3470","condition":"contingent","relevant_dimensions":["wings","legs"],"bee_group":{"antennae":"X","wings":"1","pattern":"X","legs":"F"},"bonus":1.020000000000001},{"rt":9462.199999988079,"stimulus":"bees-with-color/bee-B2DM.svg","response":0,"trial_type":"image-button-response","trial_index":31,"time_elapsed":310457,"internal_node_id":"0.0-4.0-0.12","subject_id":"5e04595a4fa02aefdb9c9ced","study_id":"60edd13110225f80f9f3709b","session_id":"6196c1f19467f4411a0e3470","condition":"contingent","relevant_dimensions":["wings","legs"],"bee_group":{"antennae":"X","wings":"1","pattern":"X","legs":"F"},"action":"harvest","summary":"good-harvest","bonus":1.020000000000001},{"rt":17039.100000023842,"stimulus":"\n                    <p><b>Action: <em>harvest</em></b></p>\n                    <p>This is the bee that you just saw.</p>\n                    <img src=\"bees-with-color/bee-B2DM.svg\" width=\"200\">\n                    <p><span class=\"greenText\"><b>Successful harvest!</b></span><br>Your pay has increased by $0.02. Your bonus pay is now $0.48.</p>\n            ","response":0,"trial_type":"html-button-response","trial_index":32,"time_elapsed":327497,"internal_node_id":"0.0-4.0-1.12","subject_id":"5e04595a4fa02aefdb9c9ced","study_id":"60edd13110225f80f9f3709b","session_id":"6196c1f19467f4411a0e3470","condition":"contingent","relevant_dimensions":["wings","legs"],"bee_group":{"antennae":"X","wings":"1","pattern":"X","legs":"F"},"bonus":1.020000000000001},{"rt":7615.199999988079,"stimulus":"bees-with-color/bee-A1DF.svg","response":0,"trial_type":"image-button-response","trial_index":33,"time_elapsed":335114,"internal_node_id":"0.0-4.0-0.13","subject_id":"5e04595a4fa02aefdb9c9ced","study_id":"60edd13110225f80f9f3709b","session_id":"6196c1f19467f4411a0e3470","condition":"contingent","relevant_dimensions":["wings","legs"],"bee_group":{"antennae":"X","wings":"1","pattern":"X","legs":"F"},"action":"harvest","summary":"bad-harvest","bonus":1.020000000000001},{"rt":2862.399999976158,"stimulus":"\n                    <p><b>Action: <em>harvest</em></b></p>\n                    <p>This is the bee that you just saw.</p>\n                    <img src=\"bees-with-color/bee-A1DF.svg\" width=\"200\">\n                    <p><span class=\"redText\">Bad choice, the bee was angry.</span><br><b>You have been stung!</b><br>Your pay has been decreased by $0.10. Your bonus pay is now $0.38.</p>\n            ","response":0,"trial_type":"html-button-response","trial_index":34,"time_elapsed":337977,"internal_node_id":"0.0-4.0-1.13","subject_id":"5e04595a4fa02aefdb9c9ced","study_id":"60edd13110225f80f9f3709b","session_id":"6196c1f19467f4411a0e3470","condition":"contingent","relevant_dimensions":["wings","legs"],"bee_group":{"antennae":"X","wings":"1","pattern":"X","legs":"F"},"bonus":1.020000000000001},{"rt":4214.700000047684,"stimulus":"bees-with-color/bee-B1SM.svg","response":0,"trial_type":"image-button-response","trial_index":35,"time_elapsed":342193,"internal_node_id":"0.0-4.0-0.14","subject_id":"5e04595a4fa02aefdb9c9ced","study_id":"60edd13110225f80f9f3709b","session_id":"6196c1f19467f4411a0e3470","condition":"contingent","relevant_dimensions":["wings","legs"],"bee_group":{"antennae":"X","wings":"1","pattern":"X","legs":"F"},"action":"harvest","summary":"good-harvest","bonus":1.020000000000001},{"rt":2606.599999964237,"stimulus":"\n                    <p><b>Action: <em>harvest</em></b></p>\n                    <p>This is the bee that you just saw.</p>\n                    <img src=\"bees-with-color/bee-B1SM.svg\" width=\"200\">\n                    <p><span class=\"greenText\"><b>Successful harvest!</b></span><br>Your pay has increased by $0.02. Your bonus pay is now $0.40.</p>\n            ","response":0,"trial_type":"html-button-response","trial_index":36,"time_elapsed":344801,"internal_node_id":"0.0-4.0-1.14","subject_id":"5e04595a4fa02aefdb9c9ced","study_id":"60edd13110225f80f9f3709b","session_id":"6196c1f19467f4411a0e3470","condition":"contingent","relevant_dimensions":["wings","legs"],"bee_group":{"antennae":"X","wings":"1","pattern":"X","legs":"F"},"bonus":1.020000000000001},{"rt":4463.600000023842,"stimulus":"bees-with-color/bee-A2DF.svg","response":0,"trial_type":"image-button-response","trial_index":37,"time_elapsed":349266,"internal_node_id":"0.0-4.0-0.15","subject_id":"5e04595a4fa02aefdb9c9ced","study_id":"60edd13110225f80f9f3709b","session_id":"6196c1f19467f4411a0e3470","condition":"contingent","relevant_dimensions":["wings","legs"],"bee_group":{"antennae":"X","wings":"1","pattern":"X","legs":"F"},"action":"harvest","summary":"good-harvest","bonus":1.020000000000001},{"rt":1286.5,"stimulus":"\n                    <p><b>Action: <em>harvest</em></b></p>\n                    <p>This is the bee that you just saw.</p>\n                    <img src=\"bees-with-color/bee-A2DF.svg\" width=\"200\">\n                    <p><span class=\"greenText\"><b>Successful harvest!</b></span><br>Your pay has increased by $0.02. Your bonus pay is now $0.42.</p>\n            ","response":0,"trial_type":"html-button-response","trial_index":38,"time_elapsed":350553,"internal_node_id":"0.0-4.0-1.15","subject_id":"5e04595a4fa02aefdb9c9ced","study_id":"60edd13110225f80f9f3709b","session_id":"6196c1f19467f4411a0e3470","condition":"contingent","relevant_dimensions":["wings","legs"],"bee_group":{"antennae":"X","wings":"1","pattern":"X","legs":"F"},"bonus":1.020000000000001},{"rt":4318.899999976158,"stimulus":"bees-with-color/bee-A1DM.svg","response":1,"trial_type":"image-button-response","trial_index":39,"time_elapsed":354873,"internal_node_id":"0.0-4.0-0.16","subject_id":"5e04595a4fa02aefdb9c9ced","study_id":"60edd13110225f80f9f3709b","session_id":"6196c1f19467f4411a0e3470","condition":"contingent","relevant_dimensions":["wings","legs"],"bee_group":{"antennae":"X","wings":"1","pattern":"X","legs":"F"},"action":"avoid","summary":"bad-avoid","bonus":1.020000000000001},{"rt":1055.5,"stimulus":"\n                    <p><b>Action: <em>avoid</em></b></p>\n                    <p>This is the bee that you just saw.</p>\n                    <img src=\"bees-with-color/bee-A1DM.svg\" width=\"200\">\n                    <p><br>Your bonus pay is unchanged, and remains at $0.42.</p>\n            ","response":0,"trial_type":"html-button-response","trial_index":40,"time_elapsed":355930,"internal_node_id":"0.0-4.0-1.16","subject_id":"5e04595a4fa02aefdb9c9ced","study_id":"60edd13110225f80f9f3709b","session_id":"6196c1f19467f4411a0e3470","condition":"contingent","relevant_dimensions":["wings","legs"],"bee_group":{"antennae":"X","wings":"1","pattern":"X","legs":"F"},"bonus":1.020000000000001},{"rt":3007.199999988079,"stimulus":"bees-with-color/bee-A2SM.svg","response":0,"trial_type":"image-button-response","trial_index":41,"time_elapsed":358938,"internal_node_id":"0.0-4.0-0.17","subject_id":"5e04595a4fa02aefdb9c9ced","study_id":"60edd13110225f80f9f3709b","session_id":"6196c1f19467f4411a0e3470","condition":"contingent","relevant_dimensions":["wings","legs"],"bee_group":{"antennae":"X","wings":"1","pattern":"X","legs":"F"},"action":"harvest","summary":"good-harvest","bonus":1.020000000000001},{"rt":1167.0999999642372,"stimulus":"\n                    <p><b>Action: <em>harvest</em></b></p>\n                    <p>This is the bee that you just saw.</p>\n                    <img src=\"bees-with-color/bee-A2SM.svg\" width=\"200\">\n                    <p><span class=\"greenText\"><b>Successful harvest!</b></span><br>Your pay has increased by $0.02. Your bonus pay is now $0.44.</p>\n            ","response":0,"trial_type":"html-button-response","trial_index":42,"time_elapsed":360106,"internal_node_id":"0.0-4.0-1.17","subject_id":"5e04595a4fa02aefdb9c9ced","study_id":"60edd13110225f80f9f3709b","session_id":"6196c1f19467f4411a0e3470","condition":"contingent","relevant_dimensions":["wings","legs"],"bee_group":{"antennae":"X","wings":"1","pattern":"X","legs":"F"},"bonus":1.020000000000001},{"rt":2807.100000023842,"stimulus":"bees-with-color/bee-B2DM.svg","response":1,"trial_type":"image-button-response","trial_index":43,"time_elapsed":362914,"internal_node_id":"0.0-4.0-0.18","subject_id":"5e04595a4fa02aefdb9c9ced","study_id":"60edd13110225f80f9f3709b","session_id":"6196c1f19467f4411a0e3470","condition":"contingent","relevant_dimensions":["wings","legs"],"bee_group":{"antennae":"X","wings":"1","pattern":"X","legs":"F"},"action":"avoid","summary":"bad-avoid","bonus":1.020000000000001},{"rt":1462.5,"stimulus":"\n                    <p><b>Action: <em>avoid</em></b></p>\n                    <p>This is the bee that you just saw.</p>\n                    <img src=\"bees-with-color/bee-B2DM.svg\" width=\"200\">\n                    <p><br>Your bonus pay is unchanged, and remains at $0.44.</p>\n            ","response":0,"trial_type":"html-button-response","trial_index":44,"time_elapsed":364378,"internal_node_id":"0.0-4.0-1.18","subject_id":"5e04595a4fa02aefdb9c9ced","study_id":"60edd13110225f80f9f3709b","session_id":"6196c1f19467f4411a0e3470","condition":"contingent","relevant_dimensions":["wings","legs"],"bee_group":{"antennae":"X","wings":"1","pattern":"X","legs":"F"},"bonus":1.020000000000001},{"rt":2438.399999976158,"stimulus":"bees-with-color/bee-B1SM.svg","response":0,"trial_type":"image-button-response","trial_index":45,"time_elapsed":366817,"internal_node_id":"0.0-4.0-0.19","subject_id":"5e04595a4fa02aefdb9c9ced","study_id":"60edd13110225f80f9f3709b","session_id":"6196c1f19467f4411a0e3470","condition":"contingent","relevant_dimensions":["wings","legs"],"bee_group":{"antennae":"X","wings":"1","pattern":"X","legs":"F"},"action":"harvest","summary":"good-harvest","bonus":1.020000000000001},{"rt":1240.5999999642372,"stimulus":"\n                    <p><b>Action: <em>harvest</em></b></p>\n                    <p>This is the bee that you just saw.</p>\n                    <img src=\"bees-with-color/bee-B1SM.svg\" width=\"200\">\n                    <p><span class=\"greenText\"><b>Successful harvest!</b></span><br>Your pay has increased by $0.02. Your bonus pay is now $0.46.</p>\n            ","response":0,"trial_type":"html-button-response","trial_index":46,"time_elapsed":368059,"internal_node_id":"0.0-4.0-1.19","subject_id":"5e04595a4fa02aefdb9c9ced","study_id":"60edd13110225f80f9f3709b","session_id":"6196c1f19467f4411a0e3470","condition":"contingent","relevant_dimensions":["wings","legs"],"bee_group":{"antennae":"X","wings":"1","pattern":"X","legs":"F"},"bonus":1.020000000000001},{"rt":2222.100000023842,"stimulus":"bees-with-color/bee-A2DM.svg","response":0,"trial_type":"image-button-response","trial_index":47,"time_elapsed":370282,"internal_node_id":"0.0-4.0-0.20","subject_id":"5e04595a4fa02aefdb9c9ced","study_id":"60edd13110225f80f9f3709b","session_id":"6196c1f19467f4411a0e3470","condition":"contingent","relevant_dimensions":["wings","legs"],"bee_group":{"antennae":"X","wings":"1","pattern":"X","legs":"F"},"action":"harvest","summary":"good-harvest","bonus":1.020000000000001},{"rt":790.9000000357628,"stimulus":"\n                    <p><b>Action: <em>harvest</em></b></p>\n                    <p>This is the bee that you just saw.</p>\n                    <img src=\"bees-with-color/bee-A2DM.svg\" width=\"200\">\n                    <p><span class=\"greenText\"><b>Successful harvest!</b></span><br>Your pay has increased by $0.02. Your bonus pay is now $0.48.</p>\n            ","response":0,"trial_type":"html-button-response","trial_index":48,"time_elapsed":371074,"internal_node_id":"0.0-4.0-1.20","subject_id":"5e04595a4fa02aefdb9c9ced","study_id":"60edd13110225f80f9f3709b","session_id":"6196c1f19467f4411a0e3470","condition":"contingent","relevant_dimensions":["wings","legs"],"bee_group":{"antennae":"X","wings":"1","pattern":"X","legs":"F"},"bonus":1.020000000000001},{"rt":6798.699999988079,"stimulus":"bees-with-color/bee-B1SF.svg","response":0,"trial_type":"image-button-response","trial_index":49,"time_elapsed":377873,"internal_node_id":"0.0-4.0-0.21","subject_id":"5e04595a4fa02aefdb9c9ced","study_id":"60edd13110225f80f9f3709b","session_id":"6196c1f19467f4411a0e3470","condition":"contingent","relevant_dimensions":["wings","legs"],"bee_group":{"antennae":"X","wings":"1","pattern":"X","legs":"F"},"action":"harvest","summary":"bad-harvest","bonus":1.020000000000001},{"rt":10920.100000023842,"stimulus":"\n                    <p><b>Action: <em>harvest</em></b></p>\n                    <p>This is the bee that you just saw.</p>\n                    <img src=\"bees-with-color/bee-B1SF.svg\" width=\"200\">\n                    <p><span class=\"redText\">Bad choice, the bee was angry.</span><br><b>You have been stung!</b><br>Your pay has been decreased by $0.10. Your bonus pay is now $0.38.</p>\n            ","response":0,"trial_type":"html-button-response","trial_index":50,"time_elapsed":388794,"internal_node_id":"0.0-4.0-1.21","subject_id":"5e04595a4fa02aefdb9c9ced","study_id":"60edd13110225f80f9f3709b","session_id":"6196c1f19467f4411a0e3470","condition":"contingent","relevant_dimensions":["wings","legs"],"bee_group":{"antennae":"X","wings":"1","pattern":"X","legs":"F"},"bonus":1.020000000000001},{"rt":4399.699999988079,"stimulus":"bees-with-color/bee-A1SF.svg","response":0,"trial_type":"image-button-response","trial_index":51,"time_elapsed":393195,"internal_node_id":"0.0-4.0-0.22","subject_id":"5e04595a4fa02aefdb9c9ced","study_id":"60edd13110225f80f9f3709b","session_id":"6196c1f19467f4411a0e3470","condition":"contingent","relevant_dimensions":["wings","legs"],"bee_group":{"antennae":"X","wings":"1","pattern":"X","legs":"F"},"action":"harvest","summary":"bad-harvest","bonus":1.020000000000001},{"rt":13334.5,"stimulus":"\n                    <p><b>Action: <em>harvest</em></b></p>\n                    <p>This is the bee that you just saw.</p>\n                    <img src=\"bees-with-color/bee-A1SF.svg\" width=\"200\">\n                    <p><span class=\"redText\">Bad choice, the bee was angry.</span><br><b>You have been stung!</b><br>Your pay has been decreased by $0.10. Your bonus pay is now $0.28.</p>\n            ","response":0,"trial_type":"html-button-response","trial_index":52,"time_elapsed":406531,"internal_node_id":"0.0-4.0-1.22","subject_id":"5e04595a4fa02aefdb9c9ced","study_id":"60edd13110225f80f9f3709b","session_id":"6196c1f19467f4411a0e3470","condition":"contingent","relevant_dimensions":["wings","legs"],"bee_group":{"antennae":"X","wings":"1","pattern":"X","legs":"F"},"bonus":1.020000000000001},{"rt":6038.5,"stimulus":"bees-with-color/bee-B2SM.svg","response":0,"trial_type":"image-button-response","trial_index":53,"time_elapsed":412571,"internal_node_id":"0.0-4.0-0.23","subject_id":"5e04595a4fa02aefdb9c9ced","study_id":"60edd13110225f80f9f3709b","session_id":"6196c1f19467f4411a0e3470","condition":"contingent","relevant_dimensions":["wings","legs"],"bee_group":{"antennae":"X","wings":"1","pattern":"X","legs":"F"},"action":"harvest","summary":"good-harvest","bonus":1.020000000000001},{"rt":2439.300000011921,"stimulus":"\n                    <p><b>Action: <em>harvest</em></b></p>\n                    <p>This is the bee that you just saw.</p>\n                    <img src=\"bees-with-color/bee-B2SM.svg\" width=\"200\">\n                    <p><span class=\"greenText\"><b>Successful harvest!</b></span><br>Your pay has increased by $0.02. Your bonus pay is now $0.30.</p>\n            ","response":0,"trial_type":"html-button-response","trial_index":54,"time_elapsed":415011,"internal_node_id":"0.0-4.0-1.23","subject_id":"5e04595a4fa02aefdb9c9ced","study_id":"60edd13110225f80f9f3709b","session_id":"6196c1f19467f4411a0e3470","condition":"contingent","relevant_dimensions":["wings","legs"],"bee_group":{"antennae":"X","wings":"1","pattern":"X","legs":"F"},"bonus":1.020000000000001},{"rt":3639.100000023842,"stimulus":"bees-with-color/bee-A1DF.svg","response":1,"trial_type":"image-button-response","trial_index":55,"time_elapsed":418651,"internal_node_id":"0.0-4.0-0.24","subject_id":"5e04595a4fa02aefdb9c9ced","study_id":"60edd13110225f80f9f3709b","session_id":"6196c1f19467f4411a0e3470","condition":"contingent","relevant_dimensions":["wings","legs"],"bee_group":{"antennae":"X","wings":"1","pattern":"X","legs":"F"},"action":"avoid","summary":"good-avoid","bonus":1.020000000000001},{"rt":1374.5999999642372,"stimulus":"\n                    <p><b>Action: <em>avoid</em></b></p>\n                    <p>This is the bee that you just saw.</p>\n                    <img src=\"bees-with-color/bee-A1DF.svg\" width=\"200\">\n                    <p><br>Your bonus pay is unchanged, and remains at $0.30.</p>\n            ","response":0,"trial_type":"html-button-response","trial_index":56,"time_elapsed":420026,"internal_node_id":"0.0-4.0-1.24","subject_id":"5e04595a4fa02aefdb9c9ced","study_id":"60edd13110225f80f9f3709b","session_id":"6196c1f19467f4411a0e3470","condition":"contingent","relevant_dimensions":["wings","legs"],"bee_group":{"antennae":"X","wings":"1","pattern":"X","legs":"F"},"bonus":1.020000000000001},{"rt":2727.800000011921,"stimulus":"bees-with-color/bee-B2DF.svg","response":1,"trial_type":"image-button-response","trial_index":57,"time_elapsed":422755,"internal_node_id":"0.0-4.0-0.25","subject_id":"5e04595a4fa02aefdb9c9ced","study_id":"60edd13110225f80f9f3709b","session_id":"6196c1f19467f4411a0e3470","condition":"contingent","relevant_dimensions":["wings","legs"],"bee_group":{"antennae":"X","wings":"1","pattern":"X","legs":"F"},"action":"avoid","summary":"bad-avoid","bonus":1.020000000000001},{"rt":1022.6999999880791,"stimulus":"\n                    <p><b>Action: <em>avoid</em></b></p>\n                    <p>This is the bee that you just saw.</p>\n                    <img src=\"bees-with-color/bee-B2DF.svg\" width=\"200\">\n                    <p><br>Your bonus pay is unchanged, and remains at $0.30.</p>\n            ","response":0,"trial_type":"html-button-response","trial_index":58,"time_elapsed":423779,"internal_node_id":"0.0-4.0-1.25","subject_id":"5e04595a4fa02aefdb9c9ced","study_id":"60edd13110225f80f9f3709b","session_id":"6196c1f19467f4411a0e3470","condition":"contingent","relevant_dimensions":["wings","legs"],"bee_group":{"antennae":"X","wings":"1","pattern":"X","legs":"F"},"bonus":1.020000000000001},{"rt":3631,"stimulus":"bees-with-color/bee-B1DF.svg","response":0,"trial_type":"image-button-response","trial_index":59,"time_elapsed":427411,"internal_node_id":"0.0-4.0-0.26","subject_id":"5e04595a4fa02aefdb9c9ced","study_id":"60edd13110225f80f9f3709b","session_id":"6196c1f19467f4411a0e3470","condition":"contingent","relevant_dimensions":["wings","legs"],"bee_group":{"antennae":"X","wings":"1","pattern":"X","legs":"F"},"action":"harvest","summary":"bad-harvest","bonus":1.020000000000001},{"rt":1830.3999999761581,"stimulus":"\n                    <p><b>Action: <em>harvest</em></b></p>\n                    <p>This is the bee that you just saw.</p>\n                    <img src=\"bees-with-color/bee-B1DF.svg\" width=\"200\">\n                    <p><span class=\"redText\">Bad choice, the bee was angry.</span><br><b>You have been stung!</b><br>Your pay has been decreased by $0.10. Your bonus pay is now $0.20.</p>\n            ","response":0,"trial_type":"html-button-response","trial_index":60,"time_elapsed":429242,"internal_node_id":"0.0-4.0-1.26","subject_id":"5e04595a4fa02aefdb9c9ced","study_id":"60edd13110225f80f9f3709b","session_id":"6196c1f19467f4411a0e3470","condition":"contingent","relevant_dimensions":["wings","legs"],"bee_group":{"antennae":"X","wings":"1","pattern":"X","legs":"F"},"bonus":1.020000000000001},{"rt":3695,"stimulus":"bees-with-color/bee-B2SF.svg","response":1,"trial_type":"image-button-response","trial_index":61,"time_elapsed":432939,"internal_node_id":"0.0-4.0-0.27","subject_id":"5e04595a4fa02aefdb9c9ced","study_id":"60edd13110225f80f9f3709b","session_id":"6196c1f19467f4411a0e3470","condition":"contingent","relevant_dimensions":["wings","legs"],"bee_group":{"antennae":"X","wings":"1","pattern":"X","legs":"F"},"action":"avoid","summary":"bad-avoid","bonus":1.020000000000001},{"rt":1039.5,"stimulus":"\n                    <p><b>Action: <em>avoid</em></b></p>\n                    <p>This is the bee that you just saw.</p>\n                    <img src=\"bees-with-color/bee-B2SF.svg\" width=\"200\">\n                    <p><br>Your bonus pay is unchanged, and remains at $0.20.</p>\n            ","response":0,"trial_type":"html-button-response","trial_index":62,"time_elapsed":433979,"internal_node_id":"0.0-4.0-1.27","subject_id":"5e04595a4fa02aefdb9c9ced","study_id":"60edd13110225f80f9f3709b","session_id":"6196c1f19467f4411a0e3470","condition":"contingent","relevant_dimensions":["wings","legs"],"bee_group":{"antennae":"X","wings":"1","pattern":"X","legs":"F"},"bonus":1.020000000000001},{"rt":3558.899999976158,"stimulus":"bees-with-color/bee-B1DM.svg","response":0,"trial_type":"image-button-response","trial_index":63,"time_elapsed":437539,"internal_node_id":"0.0-4.0-0.28","subject_id":"5e04595a4fa02aefdb9c9ced","study_id":"60edd13110225f80f9f3709b","session_id":"6196c1f19467f4411a0e3470","condition":"contingent","relevant_dimensions":["wings","legs"],"bee_group":{"antennae":"X","wings":"1","pattern":"X","legs":"F"},"action":"harvest","summary":"good-harvest","bonus":1.020000000000001},{"rt":1158.5,"stimulus":"\n                    <p><b>Action: <em>harvest</em></b></p>\n                    <p>This is the bee that you just saw.</p>\n                    <img src=\"bees-with-color/bee-B1DM.svg\" width=\"200\">\n                    <p><span class=\"greenText\"><b>Successful harvest!</b></span><br>Your pay has increased by $0.02. Your bonus pay is now $0.22.</p>\n            ","response":0,"trial_type":"html-button-response","trial_index":64,"time_elapsed":438699,"internal_node_id":"0.0-4.0-1.28","subject_id":"5e04595a4fa02aefdb9c9ced","study_id":"60edd13110225f80f9f3709b","session_id":"6196c1f19467f4411a0e3470","condition":"contingent","relevant_dimensions":["wings","legs"],"bee_group":{"antennae":"X","wings":"1","pattern":"X","legs":"F"},"bonus":1.020000000000001},{"rt":4751.600000023842,"stimulus":"bees-with-color/bee-A1SM.svg","response":0,"trial_type":"image-button-response","trial_index":65,"time_elapsed":443451,"internal_node_id":"0.0-4.0-0.29","subject_id":"5e04595a4fa02aefdb9c9ced","study_id":"60edd13110225f80f9f3709b","session_id":"6196c1f19467f4411a0e3470","condition":"contingent","relevant_dimensions":["wings","legs"],"bee_group":{"antennae":"X","wings":"1","pattern":"X","legs":"F"},"action":"harvest","summary":"good-harvest","bonus":1.020000000000001},{"rt":1502.6000000238419,"stimulus":"\n                    <p><b>Action: <em>harvest</em></b></p>\n                    <p>This is the bee that you just saw.</p>\n                    <img src=\"bees-with-color/bee-A1SM.svg\" width=\"200\">\n                    <p><span class=\"greenText\"><b>Successful harvest!</b></span><br>Your pay has increased by $0.02. Your bonus pay is now $0.24.</p>\n            ","response":0,"trial_type":"html-button-response","trial_index":66,"time_elapsed":444955,"internal_node_id":"0.0-4.0-1.29","subject_id":"5e04595a4fa02aefdb9c9ced","study_id":"60edd13110225f80f9f3709b","session_id":"6196c1f19467f4411a0e3470","condition":"contingent","relevant_dimensions":["wings","legs"],"bee_group":{"antennae":"X","wings":"1","pattern":"X","legs":"F"},"bonus":1.020000000000001},{"rt":7896.399999976158,"stimulus":"bees-with-color/bee-A2DF.svg","response":0,"trial_type":"image-button-response","trial_index":67,"time_elapsed":452852,"internal_node_id":"0.0-4.0-0.30","subject_id":"5e04595a4fa02aefdb9c9ced","study_id":"60edd13110225f80f9f3709b","session_id":"6196c1f19467f4411a0e3470","condition":"contingent","relevant_dimensions":["wings","legs"],"bee_group":{"antennae":"X","wings":"1","pattern":"X","legs":"F"},"action":"harvest","summary":"good-harvest","bonus":1.020000000000001},{"rt":1253.6000000238419,"stimulus":"\n                    <p><b>Action: <em>harvest</em></b></p>\n                    <p>This is the bee that you just saw.</p>\n                    <img src=\"bees-with-color/bee-A2DF.svg\" width=\"200\">\n                    <p><span class=\"greenText\"><b>Successful harvest!</b></span><br>Your pay has increased by $0.02. Your bonus pay is now $0.26.</p>\n            ","response":0,"trial_type":"html-button-response","trial_index":68,"time_elapsed":454107,"internal_node_id":"0.0-4.0-1.30","subject_id":"5e04595a4fa02aefdb9c9ced","study_id":"60edd13110225f80f9f3709b","session_id":"6196c1f19467f4411a0e3470","condition":"contingent","relevant_dimensions":["wings","legs"],"bee_group":{"antennae":"X","wings":"1","pattern":"X","legs":"F"},"bonus":1.020000000000001},{"rt":8391.100000023842,"stimulus":"bees-with-color/bee-A2SF.svg","response":1,"trial_type":"image-button-response","trial_index":69,"time_elapsed":462498,"internal_node_id":"0.0-4.0-0.31","subject_id":"5e04595a4fa02aefdb9c9ced","study_id":"60edd13110225f80f9f3709b","session_id":"6196c1f19467f4411a0e3470","condition":"contingent","relevant_dimensions":["wings","legs"],"bee_group":{"antennae":"X","wings":"1","pattern":"X","legs":"F"},"action":"avoid","summary":"bad-avoid","bonus":1.020000000000001},{"rt":910.8000000119209,"stimulus":"\n                    <p><b>Action: <em>avoid</em></b></p>\n                    <p>This is the bee that you just saw.</p>\n                    <img src=\"bees-with-color/bee-A2SF.svg\" width=\"200\">\n                    <p><br>Your bonus pay is unchanged, and remains at $0.26.</p>\n            ","response":0,"trial_type":"html-button-response","trial_index":70,"time_elapsed":463410,"internal_node_id":"0.0-4.0-1.31","subject_id":"5e04595a4fa02aefdb9c9ced","study_id":"60edd13110225f80f9f3709b","session_id":"6196c1f19467f4411a0e3470","condition":"contingent","relevant_dimensions":["wings","legs"],"bee_group":{"antennae":"X","wings":"1","pattern":"X","legs":"F"},"bonus":1.020000000000001},{"rt":3319.300000011921,"stimulus":"bees-with-color/bee-B2DM.svg","response":1,"trial_type":"image-button-response","trial_index":71,"time_elapsed":466730,"internal_node_id":"0.0-4.0-0.32","subject_id":"5e04595a4fa02aefdb9c9ced","study_id":"60edd13110225f80f9f3709b","session_id":"6196c1f19467f4411a0e3470","condition":"contingent","relevant_dimensions":["wings","legs"],"bee_group":{"antennae":"X","wings":"1","pattern":"X","legs":"F"},"action":"avoid","summary":"bad-avoid","bonus":1.020000000000001},{"rt":679,"stimulus":"\n                    <p><b>Action: <em>avoid</em></b></p>\n                    <p>This is the bee that you just saw.</p>\n                    <img src=\"bees-with-color/bee-B2DM.svg\" width=\"200\">\n                    <p><br>Your bonus pay is unchanged, and remains at $0.26.</p>\n            ","response":0,"trial_type":"html-button-response","trial_index":72,"time_elapsed":467410,"internal_node_id":"0.0-4.0-1.32","subject_id":"5e04595a4fa02aefdb9c9ced","study_id":"60edd13110225f80f9f3709b","session_id":"6196c1f19467f4411a0e3470","condition":"contingent","relevant_dimensions":["wings","legs"],"bee_group":{"antennae":"X","wings":"1","pattern":"X","legs":"F"},"bonus":1.020000000000001},{"rt":4166.599999964237,"stimulus":"bees-with-color/bee-B1SM.svg","response":0,"trial_type":"image-button-response","trial_index":73,"time_elapsed":471578,"internal_node_id":"0.0-4.0-0.33","subject_id":"5e04595a4fa02aefdb9c9ced","study_id":"60edd13110225f80f9f3709b","session_id":"6196c1f19467f4411a0e3470","condition":"contingent","relevant_dimensions":["wings","legs"],"bee_group":{"antennae":"X","wings":"1","pattern":"X","legs":"F"},"action":"harvest","summary":"good-harvest","bonus":1.020000000000001},{"rt":1199.8999999761581,"stimulus":"\n                    <p><b>Action: <em>harvest</em></b></p>\n                    <p>This is the bee that you just saw.</p>\n                    <img src=\"bees-with-color/bee-B1SM.svg\" width=\"200\">\n                    <p><span class=\"greenText\"><b>Successful harvest!</b></span><br>Your pay has increased by $0.02. Your bonus pay is now $0.28.</p>\n            ","response":0,"trial_type":"html-button-response","trial_index":74,"time_elapsed":472778,"internal_node_id":"0.0-4.0-1.33","subject_id":"5e04595a4fa02aefdb9c9ced","study_id":"60edd13110225f80f9f3709b","session_id":"6196c1f19467f4411a0e3470","condition":"contingent","relevant_dimensions":["wings","legs"],"bee_group":{"antennae":"X","wings":"1","pattern":"X","legs":"F"},"bonus":1.020000000000001},{"rt":10014.900000035763,"stimulus":"bees-with-color/bee-B2SF.svg","response":0,"trial_type":"image-button-response","trial_index":75,"time_elapsed":482794,"internal_node_id":"0.0-4.0-0.34","subject_id":"5e04595a4fa02aefdb9c9ced","study_id":"60edd13110225f80f9f3709b","session_id":"6196c1f19467f4411a0e3470","condition":"contingent","relevant_dimensions":["wings","legs"],"bee_group":{"antennae":"X","wings":"1","pattern":"X","legs":"F"},"action":"harvest","summary":"good-harvest","bonus":1.020000000000001},{"rt":1822,"stimulus":"\n                    <p><b>Action: <em>harvest</em></b></p>\n                    <p>This is the bee that you just saw.</p>\n                    <img src=\"bees-with-color/bee-B2SF.svg\" width=\"200\">\n                    <p><span class=\"greenText\"><b>Successful harvest!</b></span><br>Your pay has increased by $0.02. Your bonus pay is now $0.30.</p>\n            ","response":0,"trial_type":"html-button-response","trial_index":76,"time_elapsed":484617,"internal_node_id":"0.0-4.0-1.34","subject_id":"5e04595a4fa02aefdb9c9ced","study_id":"60edd13110225f80f9f3709b","session_id":"6196c1f19467f4411a0e3470","condition":"contingent","relevant_dimensions":["wings","legs"],"bee_group":{"antennae":"X","wings":"1","pattern":"X","legs":"F"},"bonus":1.020000000000001},{"rt":2487,"stimulus":"bees-with-color/bee-B1DF.svg","response":1,"trial_type":"image-button-response","trial_index":77,"time_elapsed":487106,"internal_node_id":"0.0-4.0-0.35","subject_id":"5e04595a4fa02aefdb9c9ced","study_id":"60edd13110225f80f9f3709b","session_id":"6196c1f19467f4411a0e3470","condition":"contingent","relevant_dimensions":["wings","legs"],"bee_group":{"antennae":"X","wings":"1","pattern":"X","legs":"F"},"action":"avoid","summary":"good-avoid","bonus":1.020000000000001},{"rt":1126.8999999761581,"stimulus":"\n                    <p><b>Action: <em>avoid</em></b></p>\n                    <p>This is the bee that you just saw.</p>\n                    <img src=\"bees-with-color/bee-B1DF.svg\" width=\"200\">\n                    <p><br>Your bonus pay is unchanged, and remains at $0.30.</p>\n            ","response":0,"trial_type":"html-button-response","trial_index":78,"time_elapsed":488234,"internal_node_id":"0.0-4.0-1.35","subject_id":"5e04595a4fa02aefdb9c9ced","study_id":"60edd13110225f80f9f3709b","session_id":"6196c1f19467f4411a0e3470","condition":"contingent","relevant_dimensions":["wings","legs"],"bee_group":{"antennae":"X","wings":"1","pattern":"X","legs":"F"},"bonus":1.020000000000001},{"rt":2159,"stimulus":"bees-with-color/bee-A2SM.svg","response":0,"trial_type":"image-button-response","trial_index":79,"time_elapsed":490394,"internal_node_id":"0.0-4.0-0.36","subject_id":"5e04595a4fa02aefdb9c9ced","study_id":"60edd13110225f80f9f3709b","session_id":"6196c1f19467f4411a0e3470","condition":"contingent","relevant_dimensions":["wings","legs"],"bee_group":{"antennae":"X","wings":"1","pattern":"X","legs":"F"},"action":"harvest","summary":"good-harvest","bonus":1.020000000000001},{"rt":1126.199999988079,"stimulus":"\n                    <p><b>Action: <em>harvest</em></b></p>\n                    <p>This is the bee that you just saw.</p>\n                    <img src=\"bees-with-color/bee-A2SM.svg\" width=\"200\">\n                    <p><span class=\"greenText\"><b>Successful harvest!</b></span><br>Your pay has increased by $0.02. Your bonus pay is now $0.32.</p>\n            ","response":0,"trial_type":"html-button-response","trial_index":80,"time_elapsed":491522,"internal_node_id":"0.0-4.0-1.36","subject_id":"5e04595a4fa02aefdb9c9ced","study_id":"60edd13110225f80f9f3709b","session_id":"6196c1f19467f4411a0e3470","condition":"contingent","relevant_dimensions":["wings","legs"],"bee_group":{"antennae":"X","wings":"1","pattern":"X","legs":"F"},"bonus":1.020000000000001},{"rt":2998.899999976158,"stimulus":"bees-with-color/bee-A2DM.svg","response":0,"trial_type":"image-button-response","trial_index":81,"time_elapsed":494522,"internal_node_id":"0.0-4.0-0.37","subject_id":"5e04595a4fa02aefdb9c9ced","study_id":"60edd13110225f80f9f3709b","session_id":"6196c1f19467f4411a0e3470","condition":"contingent","relevant_dimensions":["wings","legs"],"bee_group":{"antennae":"X","wings":"1","pattern":"X","legs":"F"},"action":"harvest","summary":"good-harvest","bonus":1.020000000000001},{"rt":879.6999999880791,"stimulus":"\n                    <p><b>Action: <em>harvest</em></b></p>\n                    <p>This is the bee that you just saw.</p>\n                    <img src=\"bees-with-color/bee-A2DM.svg\" width=\"200\">\n                    <p><span class=\"greenText\"><b>Successful harvest!</b></span><br>Your pay has increased by $0.02. Your bonus pay is now $0.34.</p>\n            ","response":0,"trial_type":"html-button-response","trial_index":82,"time_elapsed":495403,"internal_node_id":"0.0-4.0-1.37","subject_id":"5e04595a4fa02aefdb9c9ced","study_id":"60edd13110225f80f9f3709b","session_id":"6196c1f19467f4411a0e3470","condition":"contingent","relevant_dimensions":["wings","legs"],"bee_group":{"antennae":"X","wings":"1","pattern":"X","legs":"F"},"bonus":1.020000000000001},{"rt":4950.700000047684,"stimulus":"bees-with-color/bee-B2SM.svg","response":0,"trial_type":"image-button-response","trial_index":83,"time_elapsed":500354,"internal_node_id":"0.0-4.0-0.38","subject_id":"5e04595a4fa02aefdb9c9ced","study_id":"60edd13110225f80f9f3709b","session_id":"6196c1f19467f4411a0e3470","condition":"contingent","relevant_dimensions":["wings","legs"],"bee_group":{"antennae":"X","wings":"1","pattern":"X","legs":"F"},"action":"harvest","summary":"good-harvest","bonus":1.020000000000001},{"rt":856.1999999880791,"stimulus":"\n                    <p><b>Action: <em>harvest</em></b></p>\n                    <p>This is the bee that you just saw.</p>\n                    <img src=\"bees-with-color/bee-B2SM.svg\" width=\"200\">\n                    <p><span class=\"greenText\"><b>Successful harvest!</b></span><br>Your pay has increased by $0.02. Your bonus pay is now $0.36.</p>\n            ","response":0,"trial_type":"html-button-response","trial_index":84,"time_elapsed":501211,"internal_node_id":"0.0-4.0-1.38","subject_id":"5e04595a4fa02aefdb9c9ced","study_id":"60edd13110225f80f9f3709b","session_id":"6196c1f19467f4411a0e3470","condition":"contingent","relevant_dimensions":["wings","legs"],"bee_group":{"antennae":"X","wings":"1","pattern":"X","legs":"F"},"bonus":1.020000000000001},{"rt":3022.100000023842,"stimulus":"bees-with-color/bee-A1SF.svg","response":1,"trial_type":"image-button-response","trial_index":85,"time_elapsed":504235,"internal_node_id":"0.0-4.0-0.39","subject_id":"5e04595a4fa02aefdb9c9ced","study_id":"60edd13110225f80f9f3709b","session_id":"6196c1f19467f4411a0e3470","condition":"contingent","relevant_dimensions":["wings","legs"],"bee_group":{"antennae":"X","wings":"1","pattern":"X","legs":"F"},"action":"avoid","summary":"good-avoid","bonus":1.020000000000001},{"rt":1158.800000011921,"stimulus":"\n                    <p><b>Action: <em>avoid</em></b></p>\n                    <p>This is the bee that you just saw.</p>\n                    <img src=\"bees-with-color/bee-A1SF.svg\" width=\"200\">\n                    <p><br>Your bonus pay is unchanged, and remains at $0.36.</p>\n            ","response":0,"trial_type":"html-button-response","trial_index":86,"time_elapsed":505394,"internal_node_id":"0.0-4.0-1.39","subject_id":"5e04595a4fa02aefdb9c9ced","study_id":"60edd13110225f80f9f3709b","session_id":"6196c1f19467f4411a0e3470","condition":"contingent","relevant_dimensions":["wings","legs"],"bee_group":{"antennae":"X","wings":"1","pattern":"X","legs":"F"},"bonus":1.020000000000001},{"rt":1718.8999999761581,"stimulus":"bees-with-color/bee-A1DM.svg","response":0,"trial_type":"image-button-response","trial_index":87,"time_elapsed":507114,"internal_node_id":"0.0-4.0-0.40","subject_id":"5e04595a4fa02aefdb9c9ced","study_id":"60edd13110225f80f9f3709b","session_id":"6196c1f19467f4411a0e3470","condition":"contingent","relevant_dimensions":["wings","legs"],"bee_group":{"antennae":"X","wings":"1","pattern":"X","legs":"F"},"action":"harvest","summary":"good-harvest","bonus":1.020000000000001},{"rt":902.5,"stimulus":"\n                    <p><b>Action: <em>harvest</em></b></p>\n                    <p>This is the bee that you just saw.</p>\n                    <img src=\"bees-with-color/bee-A1DM.svg\" width=\"200\">\n                    <p><span class=\"greenText\"><b>Successful harvest!</b></span><br>Your pay has increased by $0.02. Your bonus pay is now $0.38.</p>\n            ","response":0,"trial_type":"html-button-response","trial_index":88,"time_elapsed":508018,"internal_node_id":"0.0-4.0-1.40","subject_id":"5e04595a4fa02aefdb9c9ced","study_id":"60edd13110225f80f9f3709b","session_id":"6196c1f19467f4411a0e3470","condition":"contingent","relevant_dimensions":["wings","legs"],"bee_group":{"antennae":"X","wings":"1","pattern":"X","legs":"F"},"bonus":1.020000000000001},{"rt":2487,"stimulus":"bees-with-color/bee-B2DF.svg","response":1,"trial_type":"image-button-response","trial_index":89,"time_elapsed":510506,"internal_node_id":"0.0-4.0-0.41","subject_id":"5e04595a4fa02aefdb9c9ced","study_id":"60edd13110225f80f9f3709b","session_id":"6196c1f19467f4411a0e3470","condition":"contingent","relevant_dimensions":["wings","legs"],"bee_group":{"antennae":"X","wings":"1","pattern":"X","legs":"F"},"action":"avoid","summary":"bad-avoid","bonus":1.020000000000001},{"rt":1471.3999999761581,"stimulus":"\n                    <p><b>Action: <em>avoid</em></b></p>\n                    <p>This is the bee that you just saw.</p>\n                    <img src=\"bees-with-color/bee-B2DF.svg\" width=\"200\">\n                    <p><br>Your bonus pay is unchanged, and remains at $0.38.</p>\n            ","response":0,"trial_type":"html-button-response","trial_index":90,"time_elapsed":511978,"internal_node_id":"0.0-4.0-1.41","subject_id":"5e04595a4fa02aefdb9c9ced","study_id":"60edd13110225f80f9f3709b","session_id":"6196c1f19467f4411a0e3470","condition":"contingent","relevant_dimensions":["wings","legs"],"bee_group":{"antennae":"X","wings":"1","pattern":"X","legs":"F"},"bonus":1.020000000000001},{"rt":2806.899999976158,"stimulus":"bees-with-color/bee-A1DF.svg","response":1,"trial_type":"image-button-response","trial_index":91,"time_elapsed":514786,"internal_node_id":"0.0-4.0-0.42","subject_id":"5e04595a4fa02aefdb9c9ced","study_id":"60edd13110225f80f9f3709b","session_id":"6196c1f19467f4411a0e3470","condition":"contingent","relevant_dimensions":["wings","legs"],"bee_group":{"antennae":"X","wings":"1","pattern":"X","legs":"F"},"action":"avoid","summary":"good-avoid","bonus":1.020000000000001},{"rt":1118.5999999642372,"stimulus":"\n                    <p><b>Action: <em>avoid</em></b></p>\n                    <p>This is the bee that you just saw.</p>\n                    <img src=\"bees-with-color/bee-A1DF.svg\" width=\"200\">\n                    <p><br>Your bonus pay is unchanged, and remains at $0.38.</p>\n            ","response":0,"trial_type":"html-button-response","trial_index":92,"time_elapsed":515906,"internal_node_id":"0.0-4.0-1.42","subject_id":"5e04595a4fa02aefdb9c9ced","study_id":"60edd13110225f80f9f3709b","session_id":"6196c1f19467f4411a0e3470","condition":"contingent","relevant_dimensions":["wings","legs"],"bee_group":{"antennae":"X","wings":"1","pattern":"X","legs":"F"},"bonus":1.020000000000001},{"rt":4303,"stimulus":"bees-with-color/bee-A2DF.svg","response":0,"trial_type":"image-button-response","trial_index":93,"time_elapsed":520210,"internal_node_id":"0.0-4.0-0.43","subject_id":"5e04595a4fa02aefdb9c9ced","study_id":"60edd13110225f80f9f3709b","session_id":"6196c1f19467f4411a0e3470","condition":"contingent","relevant_dimensions":["wings","legs"],"bee_group":{"antennae":"X","wings":"1","pattern":"X","legs":"F"},"action":"harvest","summary":"good-harvest","bonus":1.020000000000001},{"rt":2815,"stimulus":"\n                    <p><b>Action: <em>harvest</em></b></p>\n                    <p>This is the bee that you just saw.</p>\n                    <img src=\"bees-with-color/bee-A2DF.svg\" width=\"200\">\n                    <p><span class=\"greenText\"><b>Successful harvest!</b></span><br>Your pay has increased by $0.02. Your bonus pay is now $0.40.</p>\n            ","response":0,"trial_type":"html-button-response","trial_index":94,"time_elapsed":523027,"internal_node_id":"0.0-4.0-1.43","subject_id":"5e04595a4fa02aefdb9c9ced","study_id":"60edd13110225f80f9f3709b","session_id":"6196c1f19467f4411a0e3470","condition":"contingent","relevant_dimensions":["wings","legs"],"bee_group":{"antennae":"X","wings":"1","pattern":"X","legs":"F"},"bonus":1.020000000000001},{"rt":1727.199999988079,"stimulus":"bees-with-color/bee-A1SM.svg","response":0,"trial_type":"image-button-response","trial_index":95,"time_elapsed":524755,"internal_node_id":"0.0-4.0-0.44","subject_id":"5e04595a4fa02aefdb9c9ced","study_id":"60edd13110225f80f9f3709b","session_id":"6196c1f19467f4411a0e3470","condition":"contingent","relevant_dimensions":["wings","legs"],"bee_group":{"antennae":"X","wings":"1","pattern":"X","legs":"F"},"action":"harvest","summary":"good-harvest","bonus":1.020000000000001},{"rt":911.7000000476837,"stimulus":"\n                    <p><b>Action: <em>harvest</em></b></p>\n                    <p>This is the bee that you just saw.</p>\n                    <img src=\"bees-with-color/bee-A1SM.svg\" width=\"200\">\n                    <p><span class=\"greenText\"><b>Successful harvest!</b></span><br>Your pay has increased by $0.02. Your bonus pay is now $0.42.</p>\n            ","response":0,"trial_type":"html-button-response","trial_index":96,"time_elapsed":525667,"internal_node_id":"0.0-4.0-1.44","subject_id":"5e04595a4fa02aefdb9c9ced","study_id":"60edd13110225f80f9f3709b","session_id":"6196c1f19467f4411a0e3470","condition":"contingent","relevant_dimensions":["wings","legs"],"bee_group":{"antennae":"X","wings":"1","pattern":"X","legs":"F"},"bonus":1.020000000000001},{"rt":6488.100000023842,"stimulus":"bees-with-color/bee-A2SF.svg","response":1,"trial_type":"image-button-response","trial_index":97,"time_elapsed":532156,"internal_node_id":"0.0-4.0-0.45","subject_id":"5e04595a4fa02aefdb9c9ced","study_id":"60edd13110225f80f9f3709b","session_id":"6196c1f19467f4411a0e3470","condition":"contingent","relevant_dimensions":["wings","legs"],"bee_group":{"antennae":"X","wings":"1","pattern":"X","legs":"F"},"action":"avoid","summary":"bad-avoid","bonus":1.020000000000001},{"rt":966.6000000238419,"stimulus":"\n                    <p><b>Action: <em>avoid</em></b></p>\n                    <p>This is the bee that you just saw.</p>\n                    <img src=\"bees-with-color/bee-A2SF.svg\" width=\"200\">\n                    <p><br>Your bonus pay is unchanged, and remains at $0.42.</p>\n            ","response":0,"trial_type":"html-button-response","trial_index":98,"time_elapsed":533124,"internal_node_id":"0.0-4.0-1.45","subject_id":"5e04595a4fa02aefdb9c9ced","study_id":"60edd13110225f80f9f3709b","session_id":"6196c1f19467f4411a0e3470","condition":"contingent","relevant_dimensions":["wings","legs"],"bee_group":{"antennae":"X","wings":"1","pattern":"X","legs":"F"},"bonus":1.020000000000001},{"rt":3399.699999988079,"stimulus":"bees-with-color/bee-B1DM.svg","response":0,"trial_type":"image-button-response","trial_index":99,"time_elapsed":536525,"internal_node_id":"0.0-4.0-0.46","subject_id":"5e04595a4fa02aefdb9c9ced","study_id":"60edd13110225f80f9f3709b","session_id":"6196c1f19467f4411a0e3470","condition":"contingent","relevant_dimensions":["wings","legs"],"bee_group":{"antennae":"X","wings":"1","pattern":"X","legs":"F"},"action":"harvest","summary":"good-harvest","bonus":1.020000000000001},{"rt":806.2000000476837,"stimulus":"\n                    <p><b>Action: <em>harvest</em></b></p>\n                    <p>This is the bee that you just saw.</p>\n                    <img src=\"bees-with-color/bee-B1DM.svg\" width=\"200\">\n                    <p><span class=\"greenText\"><b>Successful harvest!</b></span><br>Your pay has increased by $0.02. Your bonus pay is now $0.44.</p>\n            ","response":0,"trial_type":"html-button-response","trial_index":100,"time_elapsed":537332,"internal_node_id":"0.0-4.0-1.46","subject_id":"5e04595a4fa02aefdb9c9ced","study_id":"60edd13110225f80f9f3709b","session_id":"6196c1f19467f4411a0e3470","condition":"contingent","relevant_dimensions":["wings","legs"],"bee_group":{"antennae":"X","wings":"1","pattern":"X","legs":"F"},"bonus":1.020000000000001},{"rt":2214.800000011921,"stimulus":"bees-with-color/bee-B1SF.svg","response":1,"trial_type":"image-button-response","trial_index":101,"time_elapsed":539548,"internal_node_id":"0.0-4.0-0.47","subject_id":"5e04595a4fa02aefdb9c9ced","study_id":"60edd13110225f80f9f3709b","session_id":"6196c1f19467f4411a0e3470","condition":"contingent","relevant_dimensions":["wings","legs"],"bee_group":{"antennae":"X","wings":"1","pattern":"X","legs":"F"},"action":"avoid","summary":"good-avoid","bonus":1.020000000000001},{"rt":1076.800000011921,"stimulus":"\n                    <p><b>Action: <em>avoid</em></b></p>\n                    <p>This is the bee that you just saw.</p>\n                    <img src=\"bees-with-color/bee-B1SF.svg\" width=\"200\">\n                    <p><br>Your bonus pay is unchanged, and remains at $0.44.</p>\n            ","response":0,"trial_type":"html-button-response","trial_index":102,"time_elapsed":540628,"internal_node_id":"0.0-4.0-1.47","subject_id":"5e04595a4fa02aefdb9c9ced","study_id":"60edd13110225f80f9f3709b","session_id":"6196c1f19467f4411a0e3470","condition":"contingent","relevant_dimensions":["wings","legs"],"bee_group":{"antennae":"X","wings":"1","pattern":"X","legs":"F"},"bonus":1.020000000000001},{"rt":2199,"stimulus":"bees-with-color/bee-B2DF.svg","response":1,"trial_type":"image-button-response","trial_index":103,"time_elapsed":542827,"internal_node_id":"0.0-4.0-0.48","subject_id":"5e04595a4fa02aefdb9c9ced","study_id":"60edd13110225f80f9f3709b","session_id":"6196c1f19467f4411a0e3470","condition":"contingent","relevant_dimensions":["wings","legs"],"bee_group":{"antennae":"X","wings":"1","pattern":"X","legs":"F"},"action":"avoid","summary":"bad-avoid","bonus":1.020000000000001},{"rt":991.5,"stimulus":"\n                    <p><b>Action: <em>avoid</em></b></p>\n                    <p>This is the bee that you just saw.</p>\n                    <img src=\"bees-with-color/bee-B2DF.svg\" width=\"200\">\n                    <p><br>Your bonus pay is unchanged, and remains at $0.44.</p>\n            ","response":0,"trial_type":"html-button-response","trial_index":104,"time_elapsed":543820,"internal_node_id":"0.0-4.0-1.48","subject_id":"5e04595a4fa02aefdb9c9ced","study_id":"60edd13110225f80f9f3709b","session_id":"6196c1f19467f4411a0e3470","condition":"contingent","relevant_dimensions":["wings","legs"],"bee_group":{"antennae":"X","wings":"1","pattern":"X","legs":"F"},"bonus":1.020000000000001},{"rt":4719,"stimulus":"bees-with-color/bee-B2SF.svg","response":1,"trial_type":"image-button-response","trial_index":105,"time_elapsed":548540,"internal_node_id":"0.0-4.0-0.49","subject_id":"5e04595a4fa02aefdb9c9ced","study_id":"60edd13110225f80f9f3709b","session_id":"6196c1f19467f4411a0e3470","condition":"contingent","relevant_dimensions":["wings","legs"],"bee_group":{"antennae":"X","wings":"1","pattern":"X","legs":"F"},"action":"avoid","summary":"bad-avoid","bonus":1.020000000000001},{"rt":1079.1000000238419,"stimulus":"\n                    <p><b>Action: <em>avoid</em></b></p>\n                    <p>This is the bee that you just saw.</p>\n                    <img src=\"bees-with-color/bee-B2SF.svg\" width=\"200\">\n                    <p><br>Your bonus pay is unchanged, and remains at $0.44.</p>\n            ","response":0,"trial_type":"html-button-response","trial_index":106,"time_elapsed":549620,"internal_node_id":"0.0-4.0-1.49","subject_id":"5e04595a4fa02aefdb9c9ced","study_id":"60edd13110225f80f9f3709b","session_id":"6196c1f19467f4411a0e3470","condition":"contingent","relevant_dimensions":["wings","legs"],"bee_group":{"antennae":"X","wings":"1","pattern":"X","legs":"F"},"bonus":1.020000000000001},{"rt":1455,"stimulus":"bees-with-color/bee-A2DM.svg","response":0,"trial_type":"image-button-response","trial_index":107,"time_elapsed":551076,"internal_node_id":"0.0-4.0-0.50","subject_id":"5e04595a4fa02aefdb9c9ced","study_id":"60edd13110225f80f9f3709b","session_id":"6196c1f19467f4411a0e3470","condition":"contingent","relevant_dimensions":["wings","legs"],"bee_group":{"antennae":"X","wings":"1","pattern":"X","legs":"F"},"action":"harvest","summary":"good-harvest","bonus":1.020000000000001},{"rt":879.3000000119209,"stimulus":"\n                    <p><b>Action: <em>harvest</em></b></p>\n                    <p>This is the bee that you just saw.</p>\n                    <img src=\"bees-with-color/bee-A2DM.svg\" width=\"200\">\n                    <p><span class=\"greenText\"><b>Successful harvest!</b></span><br>Your pay has increased by $0.02. Your bonus pay is now $0.46.</p>\n            ","response":0,"trial_type":"html-button-response","trial_index":108,"time_elapsed":551956,"internal_node_id":"0.0-4.0-1.50","subject_id":"5e04595a4fa02aefdb9c9ced","study_id":"60edd13110225f80f9f3709b","session_id":"6196c1f19467f4411a0e3470","condition":"contingent","relevant_dimensions":["wings","legs"],"bee_group":{"antennae":"X","wings":"1","pattern":"X","legs":"F"},"bonus":1.020000000000001},{"rt":2855.399999976158,"stimulus":"bees-with-color/bee-A1DF.svg","response":1,"trial_type":"image-button-response","trial_index":109,"time_elapsed":554812,"internal_node_id":"0.0-4.0-0.51","subject_id":"5e04595a4fa02aefdb9c9ced","study_id":"60edd13110225f80f9f3709b","session_id":"6196c1f19467f4411a0e3470","condition":"contingent","relevant_dimensions":["wings","legs"],"bee_group":{"antennae":"X","wings":"1","pattern":"X","legs":"F"},"action":"avoid","summary":"good-avoid","bonus":1.020000000000001},{"rt":1062.800000011921,"stimulus":"\n                    <p><b>Action: <em>avoid</em></b></p>\n                    <p>This is the bee that you just saw.</p>\n                    <img src=\"bees-with-color/bee-A1DF.svg\" width=\"200\">\n                    <p><br>Your bonus pay is unchanged, and remains at $0.46.</p>\n            ","response":0,"trial_type":"html-button-response","trial_index":110,"time_elapsed":555876,"internal_node_id":"0.0-4.0-1.51","subject_id":"5e04595a4fa02aefdb9c9ced","study_id":"60edd13110225f80f9f3709b","session_id":"6196c1f19467f4411a0e3470","condition":"contingent","relevant_dimensions":["wings","legs"],"bee_group":{"antennae":"X","wings":"1","pattern":"X","legs":"F"},"bonus":1.020000000000001},{"rt":4454.5,"stimulus":"bees-with-color/bee-A2SF.svg","response":0,"trial_type":"image-button-response","trial_index":111,"time_elapsed":560331,"internal_node_id":"0.0-4.0-0.52","subject_id":"5e04595a4fa02aefdb9c9ced","study_id":"60edd13110225f80f9f3709b","session_id":"6196c1f19467f4411a0e3470","condition":"contingent","relevant_dimensions":["wings","legs"],"bee_group":{"antennae":"X","wings":"1","pattern":"X","legs":"F"},"action":"harvest","summary":"good-harvest","bonus":1.020000000000001},{"rt":927.5,"stimulus":"\n                    <p><b>Action: <em>harvest</em></b></p>\n                    <p>This is the bee that you just saw.</p>\n                    <img src=\"bees-with-color/bee-A2SF.svg\" width=\"200\">\n                    <p><span class=\"greenText\"><b>Successful harvest!</b></span><br>Your pay has increased by $0.02. Your bonus pay is now $0.48.</p>\n            ","response":0,"trial_type":"html-button-response","trial_index":112,"time_elapsed":561260,"internal_node_id":"0.0-4.0-1.52","subject_id":"5e04595a4fa02aefdb9c9ced","study_id":"60edd13110225f80f9f3709b","session_id":"6196c1f19467f4411a0e3470","condition":"contingent","relevant_dimensions":["wings","legs"],"bee_group":{"antennae":"X","wings":"1","pattern":"X","legs":"F"},"bonus":1.020000000000001},{"rt":3558.599999964237,"stimulus":"bees-with-color/bee-A1DM.svg","response":0,"trial_type":"image-button-response","trial_index":113,"time_elapsed":564820,"internal_node_id":"0.0-4.0-0.53","subject_id":"5e04595a4fa02aefdb9c9ced","study_id":"60edd13110225f80f9f3709b","session_id":"6196c1f19467f4411a0e3470","condition":"contingent","relevant_dimensions":["wings","legs"],"bee_group":{"antennae":"X","wings":"1","pattern":"X","legs":"F"},"action":"harvest","summary":"good-harvest","bonus":1.020000000000001},{"rt":1006.6999999880791,"stimulus":"\n                    <p><b>Action: <em>harvest</em></b></p>\n                    <p>This is the bee that you just saw.</p>\n                    <img src=\"bees-with-color/bee-A1DM.svg\" width=\"200\">\n                    <p><span class=\"greenText\"><b>Successful harvest!</b></span><br>Your pay has increased by $0.02. Your bonus pay is now $0.50.</p>\n            ","response":0,"trial_type":"html-button-response","trial_index":114,"time_elapsed":565827,"internal_node_id":"0.0-4.0-1.53","subject_id":"5e04595a4fa02aefdb9c9ced","study_id":"60edd13110225f80f9f3709b","session_id":"6196c1f19467f4411a0e3470","condition":"contingent","relevant_dimensions":["wings","legs"],"bee_group":{"antennae":"X","wings":"1","pattern":"X","legs":"F"},"bonus":1.020000000000001},{"rt":927.3000000119209,"stimulus":"bees-with-color/bee-B2DM.svg","response":0,"trial_type":"image-button-response","trial_index":115,"time_elapsed":566756,"internal_node_id":"0.0-4.0-0.54","subject_id":"5e04595a4fa02aefdb9c9ced","study_id":"60edd13110225f80f9f3709b","session_id":"6196c1f19467f4411a0e3470","condition":"contingent","relevant_dimensions":["wings","legs"],"bee_group":{"antennae":"X","wings":"1","pattern":"X","legs":"F"},"action":"harvest","summary":"good-harvest","bonus":1.020000000000001},{"rt":686.9000000357628,"stimulus":"\n                    <p><b>Action: <em>harvest</em></b></p>\n                    <p>This is the bee that you just saw.</p>\n                    <img src=\"bees-with-color/bee-B2DM.svg\" width=\"200\">\n                    <p><span class=\"greenText\"><b>Successful harvest!</b></span><br>Your pay has increased by $0.02. Your bonus pay is now $0.52.</p>\n            ","response":0,"trial_type":"html-button-response","trial_index":116,"time_elapsed":567443,"internal_node_id":"0.0-4.0-1.54","subject_id":"5e04595a4fa02aefdb9c9ced","study_id":"60edd13110225f80f9f3709b","session_id":"6196c1f19467f4411a0e3470","condition":"contingent","relevant_dimensions":["wings","legs"],"bee_group":{"antennae":"X","wings":"1","pattern":"X","legs":"F"},"bonus":1.020000000000001},{"rt":1959.300000011921,"stimulus":"bees-with-color/bee-A1SF.svg","response":1,"trial_type":"image-button-response","trial_index":117,"time_elapsed":569404,"internal_node_id":"0.0-4.0-0.55","subject_id":"5e04595a4fa02aefdb9c9ced","study_id":"60edd13110225f80f9f3709b","session_id":"6196c1f19467f4411a0e3470","condition":"contingent","relevant_dimensions":["wings","legs"],"bee_group":{"antennae":"X","wings":"1","pattern":"X","legs":"F"},"action":"avoid","summary":"good-avoid","bonus":1.020000000000001},{"rt":831,"stimulus":"\n                    <p><b>Action: <em>avoid</em></b></p>\n                    <p>This is the bee that you just saw.</p>\n                    <img src=\"bees-with-color/bee-A1SF.svg\" width=\"200\">\n                    <p><br>Your bonus pay is unchanged, and remains at $0.52.</p>\n            ","response":0,"trial_type":"html-button-response","trial_index":118,"time_elapsed":570236,"internal_node_id":"0.0-4.0-1.55","subject_id":"5e04595a4fa02aefdb9c9ced","study_id":"60edd13110225f80f9f3709b","session_id":"6196c1f19467f4411a0e3470","condition":"contingent","relevant_dimensions":["wings","legs"],"bee_group":{"antennae":"X","wings":"1","pattern":"X","legs":"F"},"bonus":1.020000000000001},{"rt":1127.9000000357628,"stimulus":"bees-with-color/bee-A2SM.svg","response":0,"trial_type":"image-button-response","trial_index":119,"time_elapsed":571364,"internal_node_id":"0.0-4.0-0.56","subject_id":"5e04595a4fa02aefdb9c9ced","study_id":"60edd13110225f80f9f3709b","session_id":"6196c1f19467f4411a0e3470","condition":"contingent","relevant_dimensions":["wings","legs"],"bee_group":{"antennae":"X","wings":"1","pattern":"X","legs":"F"},"action":"harvest","summary":"good-harvest","bonus":1.020000000000001},{"rt":854.4000000357628,"stimulus":"\n                    <p><b>Action: <em>harvest</em></b></p>\n                    <p>This is the bee that you just saw.</p>\n                    <img src=\"bees-with-color/bee-A2SM.svg\" width=\"200\">\n                    <p><span class=\"greenText\"><b>Successful harvest!</b></span><br>Your pay has increased by $0.02. Your bonus pay is now $0.54.</p>\n            ","response":0,"trial_type":"html-button-response","trial_index":120,"time_elapsed":572220,"internal_node_id":"0.0-4.0-1.56","subject_id":"5e04595a4fa02aefdb9c9ced","study_id":"60edd13110225f80f9f3709b","session_id":"6196c1f19467f4411a0e3470","condition":"contingent","relevant_dimensions":["wings","legs"],"bee_group":{"antennae":"X","wings":"1","pattern":"X","legs":"F"},"bonus":1.020000000000001},{"rt":1527,"stimulus":"bees-with-color/bee-B1SF.svg","response":1,"trial_type":"image-button-response","trial_index":121,"time_elapsed":573748,"internal_node_id":"0.0-4.0-0.57","subject_id":"5e04595a4fa02aefdb9c9ced","study_id":"60edd13110225f80f9f3709b","session_id":"6196c1f19467f4411a0e3470","condition":"contingent","relevant_dimensions":["wings","legs"],"bee_group":{"antennae":"X","wings":"1","pattern":"X","legs":"F"},"action":"avoid","summary":"good-avoid","bonus":1.020000000000001},{"rt":879,"stimulus":"\n                    <p><b>Action: <em>avoid</em></b></p>\n                    <p>This is the bee that you just saw.</p>\n                    <img src=\"bees-with-color/bee-B1SF.svg\" width=\"200\">\n                    <p><br>Your bonus pay is unchanged, and remains at $0.54.</p>\n            ","response":0,"trial_type":"html-button-response","trial_index":122,"time_elapsed":574628,"internal_node_id":"0.0-4.0-1.57","subject_id":"5e04595a4fa02aefdb9c9ced","study_id":"60edd13110225f80f9f3709b","session_id":"6196c1f19467f4411a0e3470","condition":"contingent","relevant_dimensions":["wings","legs"],"bee_group":{"antennae":"X","wings":"1","pattern":"X","legs":"F"},"bonus":1.020000000000001},{"rt":1095.300000011921,"stimulus":"bees-with-color/bee-B1SM.svg","response":0,"trial_type":"image-button-response","trial_index":123,"time_elapsed":575724,"internal_node_id":"0.0-4.0-0.58","subject_id":"5e04595a4fa02aefdb9c9ced","study_id":"60edd13110225f80f9f3709b","session_id":"6196c1f19467f4411a0e3470","condition":"contingent","relevant_dimensions":["wings","legs"],"bee_group":{"antennae":"X","wings":"1","pattern":"X","legs":"F"},"action":"harvest","summary":"good-harvest","bonus":1.020000000000001},{"rt":790.8000000119209,"stimulus":"\n                    <p><b>Action: <em>harvest</em></b></p>\n                    <p>This is the bee that you just saw.</p>\n                    <img src=\"bees-with-color/bee-B1SM.svg\" width=\"200\">\n                    <p><span class=\"greenText\"><b>Successful harvest!</b></span><br>Your pay has increased by $0.02. Your bonus pay is now $0.56.</p>\n            ","response":0,"trial_type":"html-button-response","trial_index":124,"time_elapsed":576516,"internal_node_id":"0.0-4.0-1.58","subject_id":"5e04595a4fa02aefdb9c9ced","study_id":"60edd13110225f80f9f3709b","session_id":"6196c1f19467f4411a0e3470","condition":"contingent","relevant_dimensions":["wings","legs"],"bee_group":{"antennae":"X","wings":"1","pattern":"X","legs":"F"},"bonus":1.020000000000001},{"rt":1007.3000000119209,"stimulus":"bees-with-color/bee-A1SM.svg","response":0,"trial_type":"image-button-response","trial_index":125,"time_elapsed":577524,"internal_node_id":"0.0-4.0-0.59","subject_id":"5e04595a4fa02aefdb9c9ced","study_id":"60edd13110225f80f9f3709b","session_id":"6196c1f19467f4411a0e3470","condition":"contingent","relevant_dimensions":["wings","legs"],"bee_group":{"antennae":"X","wings":"1","pattern":"X","legs":"F"},"action":"harvest","summary":"good-harvest","bonus":1.020000000000001},{"rt":742.7999999523163,"stimulus":"\n                    <p><b>Action: <em>harvest</em></b></p>\n                    <p>This is the bee that you just saw.</p>\n                    <img src=\"bees-with-color/bee-A1SM.svg\" width=\"200\">\n                    <p><span class=\"greenText\"><b>Successful harvest!</b></span><br>Your pay has increased by $0.02. Your bonus pay is now $0.58.</p>\n            ","response":0,"trial_type":"html-button-response","trial_index":126,"time_elapsed":578268,"internal_node_id":"0.0-4.0-1.59","subject_id":"5e04595a4fa02aefdb9c9ced","study_id":"60edd13110225f80f9f3709b","session_id":"6196c1f19467f4411a0e3470","condition":"contingent","relevant_dimensions":["wings","legs"],"bee_group":{"antennae":"X","wings":"1","pattern":"X","legs":"F"},"bonus":1.020000000000001},{"rt":1094.9000000357628,"stimulus":"bees-with-color/bee-B2SM.svg","response":0,"trial_type":"image-button-response","trial_index":127,"time_elapsed":579363,"internal_node_id":"0.0-4.0-0.60","subject_id":"5e04595a4fa02aefdb9c9ced","study_id":"60edd13110225f80f9f3709b","session_id":"6196c1f19467f4411a0e3470","condition":"contingent","relevant_dimensions":["wings","legs"],"bee_group":{"antennae":"X","wings":"1","pattern":"X","legs":"F"},"action":"harvest","summary":"good-harvest","bonus":1.020000000000001},{"rt":751.8000000119209,"stimulus":"\n                    <p><b>Action: <em>harvest</em></b></p>\n                    <p>This is the bee that you just saw.</p>\n                    <img src=\"bees-with-color/bee-B2SM.svg\" width=\"200\">\n                    <p><span class=\"greenText\"><b>Successful harvest!</b></span><br>Your pay has increased by $0.02. Your bonus pay is now $0.60.</p>\n            ","response":0,"trial_type":"html-button-response","trial_index":128,"time_elapsed":580116,"internal_node_id":"0.0-4.0-1.60","subject_id":"5e04595a4fa02aefdb9c9ced","study_id":"60edd13110225f80f9f3709b","session_id":"6196c1f19467f4411a0e3470","condition":"contingent","relevant_dimensions":["wings","legs"],"bee_group":{"antennae":"X","wings":"1","pattern":"X","legs":"F"},"bonus":1.020000000000001},{"rt":1752.300000011921,"stimulus":"bees-with-color/bee-B1DF.svg","response":1,"trial_type":"image-button-response","trial_index":129,"time_elapsed":581869,"internal_node_id":"0.0-4.0-0.61","subject_id":"5e04595a4fa02aefdb9c9ced","study_id":"60edd13110225f80f9f3709b","session_id":"6196c1f19467f4411a0e3470","condition":"contingent","relevant_dimensions":["wings","legs"],"bee_group":{"antennae":"X","wings":"1","pattern":"X","legs":"F"},"action":"avoid","summary":"good-avoid","bonus":1.020000000000001},{"rt":1109.6000000238419,"stimulus":"\n                    <p><b>Action: <em>avoid</em></b></p>\n                    <p>This is the bee that you just saw.</p>\n                    <img src=\"bees-with-color/bee-B1DF.svg\" width=\"200\">\n                    <p><br>Your bonus pay is unchanged, and remains at $0.60.</p>\n            ","response":0,"trial_type":"html-button-response","trial_index":130,"time_elapsed":582979,"internal_node_id":"0.0-4.0-1.61","subject_id":"5e04595a4fa02aefdb9c9ced","study_id":"60edd13110225f80f9f3709b","session_id":"6196c1f19467f4411a0e3470","condition":"contingent","relevant_dimensions":["wings","legs"],"bee_group":{"antennae":"X","wings":"1","pattern":"X","legs":"F"},"bonus":1.020000000000001},{"rt":1184.1000000238419,"stimulus":"bees-with-color/bee-B1DM.svg","response":0,"trial_type":"image-button-response","trial_index":131,"time_elapsed":584164,"internal_node_id":"0.0-4.0-0.62","subject_id":"5e04595a4fa02aefdb9c9ced","study_id":"60edd13110225f80f9f3709b","session_id":"6196c1f19467f4411a0e3470","condition":"contingent","relevant_dimensions":["wings","legs"],"bee_group":{"antennae":"X","wings":"1","pattern":"X","legs":"F"},"action":"harvest","summary":"good-harvest","bonus":1.020000000000001},{"rt":870.4000000357628,"stimulus":"\n                    <p><b>Action: <em>harvest</em></b></p>\n                    <p>This is the bee that you just saw.</p>\n                    <img src=\"bees-with-color/bee-B1DM.svg\" width=\"200\">\n                    <p><span class=\"greenText\"><b>Successful harvest!</b></span><br>Your pay has increased by $0.02. Your bonus pay is now $0.62.</p>\n            ","response":0,"trial_type":"html-button-response","trial_index":132,"time_elapsed":585035,"internal_node_id":"0.0-4.0-1.62","subject_id":"5e04595a4fa02aefdb9c9ced","study_id":"60edd13110225f80f9f3709b","session_id":"6196c1f19467f4411a0e3470","condition":"contingent","relevant_dimensions":["wings","legs"],"bee_group":{"antennae":"X","wings":"1","pattern":"X","legs":"F"},"bonus":1.020000000000001},{"rt":11663.099999964237,"stimulus":"bees-with-color/bee-A2DF.svg","response":0,"trial_type":"image-button-response","trial_index":133,"time_elapsed":596699,"internal_node_id":"0.0-4.0-0.63","subject_id":"5e04595a4fa02aefdb9c9ced","study_id":"60edd13110225f80f9f3709b","session_id":"6196c1f19467f4411a0e3470","condition":"contingent","relevant_dimensions":["wings","legs"],"bee_group":{"antennae":"X","wings":"1","pattern":"X","legs":"F"},"action":"harvest","summary":"good-harvest","bonus":1.020000000000001},{"rt":3663.100000023842,"stimulus":"\n                    <p><b>Action: <em>harvest</em></b></p>\n                    <p>This is the bee that you just saw.</p>\n                    <img src=\"bees-with-color/bee-A2DF.svg\" width=\"200\">\n                    <p><span class=\"greenText\"><b>Successful harvest!</b></span><br>Your pay has increased by $0.02. Your bonus pay is now $0.64.</p>\n            ","response":0,"trial_type":"html-button-response","trial_index":134,"time_elapsed":600363,"internal_node_id":"0.0-4.0-1.63","subject_id":"5e04595a4fa02aefdb9c9ced","study_id":"60edd13110225f80f9f3709b","session_id":"6196c1f19467f4411a0e3470","condition":"contingent","relevant_dimensions":["wings","legs"],"bee_group":{"antennae":"X","wings":"1","pattern":"X","legs":"F"},"bonus":1.020000000000001},{"rt":10148.199999988079,"stimulus":"You have completed the first part of this experiment.<br><br>You will now begin a shorter second part, in which you will receive no feedback.<br>The same rules regarding bonus pay apply.<br><br>Press any key to begin.","response":" ","trial_type":"html-keyboard-response","trial_index":135,"time_elapsed":610513,"internal_node_id":"0.0-5.0","subject_id":"5e04595a4fa02aefdb9c9ced","study_id":"60edd13110225f80f9f3709b","session_id":"6196c1f19467f4411a0e3470","condition":"contingent","relevant_dimensions":["wings","legs"],"bee_group":{"antennae":"X","wings":"1","pattern":"X","legs":"F"},"bonus":1.020000000000001},{"rt":2281.199999988079,"stimulus":"bees-with-color/bee-A2DM.svg","response":0,"trial_type":"image-button-response","trial_index":136,"time_elapsed":612795,"internal_node_id":"0.0-6.0-0.0","subject_id":"5e04595a4fa02aefdb9c9ced","study_id":"60edd13110225f80f9f3709b","session_id":"6196c1f19467f4411a0e3470","condition":"contingent","relevant_dimensions":["wings","legs"],"bee_group":{"antennae":"X","wings":"1","pattern":"X","legs":"F"},"bonus":1.020000000000001},{"rt":2648.2999999523163,"stimulus":"bees-with-color/bee-B2SF.svg","response":1,"trial_type":"image-button-response","trial_index":137,"time_elapsed":615445,"internal_node_id":"0.0-6.0-0.1","subject_id":"5e04595a4fa02aefdb9c9ced","study_id":"60edd13110225f80f9f3709b","session_id":"6196c1f19467f4411a0e3470","condition":"contingent","relevant_dimensions":["wings","legs"],"bee_group":{"antennae":"X","wings":"1","pattern":"X","legs":"F"},"bonus":1.020000000000001},{"rt":1476.8999999761581,"stimulus":"bees-with-color/bee-B1DM.svg","response":0,"trial_type":"image-button-response","trial_index":138,"time_elapsed":616923,"internal_node_id":"0.0-6.0-0.2","subject_id":"5e04595a4fa02aefdb9c9ced","study_id":"60edd13110225f80f9f3709b","session_id":"6196c1f19467f4411a0e3470","condition":"contingent","relevant_dimensions":["wings","legs"],"bee_group":{"antennae":"X","wings":"1","pattern":"X","legs":"F"},"bonus":1.020000000000001},{"rt":2150.199999988079,"stimulus":"bees-with-color/bee-A1SM.svg","response":0,"trial_type":"image-button-response","trial_index":139,"time_elapsed":619075,"internal_node_id":"0.0-6.0-0.3","subject_id":"5e04595a4fa02aefdb9c9ced","study_id":"60edd13110225f80f9f3709b","session_id":"6196c1f19467f4411a0e3470","condition":"contingent","relevant_dimensions":["wings","legs"],"bee_group":{"antennae":"X","wings":"1","pattern":"X","legs":"F"},"bonus":1.020000000000001},{"rt":1270.6000000238419,"stimulus":"bees-with-color/bee-B1SM.svg","response":0,"trial_type":"image-button-response","trial_index":140,"time_elapsed":620347,"internal_node_id":"0.0-6.0-0.4","subject_id":"5e04595a4fa02aefdb9c9ced","study_id":"60edd13110225f80f9f3709b","session_id":"6196c1f19467f4411a0e3470","condition":"contingent","relevant_dimensions":["wings","legs"],"bee_group":{"antennae":"X","wings":"1","pattern":"X","legs":"F"},"bonus":1.020000000000001},{"rt":807.2999999523163,"stimulus":"bees-with-color/bee-A1DM.svg","response":0,"trial_type":"image-button-response","trial_index":141,"time_elapsed":621155,"internal_node_id":"0.0-6.0-0.5","subject_id":"5e04595a4fa02aefdb9c9ced","study_id":"60edd13110225f80f9f3709b","session_id":"6196c1f19467f4411a0e3470","condition":"contingent","relevant_dimensions":["wings","legs"],"bee_group":{"antennae":"X","wings":"1","pattern":"X","legs":"F"},"bonus":1.020000000000001},{"rt":1135.300000011921,"stimulus":"bees-with-color/bee-A1SF.svg","response":1,"trial_type":"image-button-response","trial_index":142,"time_elapsed":622291,"internal_node_id":"0.0-6.0-0.6","subject_id":"5e04595a4fa02aefdb9c9ced","study_id":"60edd13110225f80f9f3709b","session_id":"6196c1f19467f4411a0e3470","condition":"contingent","relevant_dimensions":["wings","legs"],"bee_group":{"antennae":"X","wings":"1","pattern":"X","legs":"F"},"bonus":1.020000000000001},{"rt":1039,"stimulus":"bees-with-color/bee-B1DF.svg","response":1,"trial_type":"image-button-response","trial_index":143,"time_elapsed":623331,"internal_node_id":"0.0-6.0-0.7","subject_id":"5e04595a4fa02aefdb9c9ced","study_id":"60edd13110225f80f9f3709b","session_id":"6196c1f19467f4411a0e3470","condition":"contingent","relevant_dimensions":["wings","legs"],"bee_group":{"antennae":"X","wings":"1","pattern":"X","legs":"F"},"bonus":1.020000000000001},{"rt":1214.800000011921,"stimulus":"bees-with-color/bee-B2DM.svg","response":0,"trial_type":"image-button-response","trial_index":144,"time_elapsed":624547,"internal_node_id":"0.0-6.0-0.8","subject_id":"5e04595a4fa02aefdb9c9ced","study_id":"60edd13110225f80f9f3709b","session_id":"6196c1f19467f4411a0e3470","condition":"contingent","relevant_dimensions":["wings","legs"],"bee_group":{"antennae":"X","wings":"1","pattern":"X","legs":"F"},"bonus":1.020000000000001},{"rt":1255.199999988079,"stimulus":"bees-with-color/bee-B1SF.svg","response":1,"trial_type":"image-button-response","trial_index":145,"time_elapsed":625803,"internal_node_id":"0.0-6.0-0.9","subject_id":"5e04595a4fa02aefdb9c9ced","study_id":"60edd13110225f80f9f3709b","session_id":"6196c1f19467f4411a0e3470","condition":"contingent","relevant_dimensions":["wings","legs"],"bee_group":{"antennae":"X","wings":"1","pattern":"X","legs":"F"},"bonus":1.020000000000001},{"rt":951.2999999523163,"stimulus":"bees-with-color/bee-A2SM.svg","response":0,"trial_type":"image-button-response","trial_index":146,"time_elapsed":626755,"internal_node_id":"0.0-6.0-0.10","subject_id":"5e04595a4fa02aefdb9c9ced","study_id":"60edd13110225f80f9f3709b","session_id":"6196c1f19467f4411a0e3470","condition":"contingent","relevant_dimensions":["wings","legs"],"bee_group":{"antennae":"X","wings":"1","pattern":"X","legs":"F"},"bonus":1.020000000000001},{"rt":4697.300000011921,"stimulus":"bees-with-color/bee-A1DF.svg","response":1,"trial_type":"image-button-response","trial_index":147,"time_elapsed":631453,"internal_node_id":"0.0-6.0-0.11","subject_id":"5e04595a4fa02aefdb9c9ced","study_id":"60edd13110225f80f9f3709b","session_id":"6196c1f19467f4411a0e3470","condition":"contingent","relevant_dimensions":["wings","legs"],"bee_group":{"antennae":"X","wings":"1","pattern":"X","legs":"F"},"bonus":1.020000000000001},{"rt":1733.5,"stimulus":"bees-with-color/bee-A2DF.svg","response":0,"trial_type":"image-button-response","trial_index":148,"time_elapsed":633187,"internal_node_id":"0.0-6.0-0.12","subject_id":"5e04595a4fa02aefdb9c9ced","study_id":"60edd13110225f80f9f3709b","session_id":"6196c1f19467f4411a0e3470","condition":"contingent","relevant_dimensions":["wings","legs"],"bee_group":{"antennae":"X","wings":"1","pattern":"X","legs":"F"},"bonus":1.020000000000001},{"rt":5878.600000023842,"stimulus":"bees-with-color/bee-A2SF.svg","response":1,"trial_type":"image-button-response","trial_index":149,"time_elapsed":639067,"internal_node_id":"0.0-6.0-0.13","subject_id":"5e04595a4fa02aefdb9c9ced","study_id":"60edd13110225f80f9f3709b","session_id":"6196c1f19467f4411a0e3470","condition":"contingent","relevant_dimensions":["wings","legs"],"bee_group":{"antennae":"X","wings":"1","pattern":"X","legs":"F"},"bonus":1.020000000000001},{"rt":2863.399999976158,"stimulus":"bees-with-color/bee-B2DF.svg","response":1,"trial_type":"image-button-response","trial_index":150,"time_elapsed":641931,"internal_node_id":"0.0-6.0-0.14","subject_id":"5e04595a4fa02aefdb9c9ced","study_id":"60edd13110225f80f9f3709b","session_id":"6196c1f19467f4411a0e3470","condition":"contingent","relevant_dimensions":["wings","legs"],"bee_group":{"antennae":"X","wings":"1","pattern":"X","legs":"F"},"bonus":1.020000000000001},{"rt":1031.9000000357628,"stimulus":"bees-with-color/bee-B2SM.svg","response":0,"trial_type":"image-button-response","trial_index":151,"time_elapsed":642964,"internal_node_id":"0.0-6.0-0.15","subject_id":"5e04595a4fa02aefdb9c9ced","study_id":"60edd13110225f80f9f3709b","session_id":"6196c1f19467f4411a0e3470","condition":"contingent","relevant_dimensions":["wings","legs"],"bee_group":{"antennae":"X","wings":"1","pattern":"X","legs":"F"},"bonus":1.020000000000001},{"rt":1565.8999999761581,"stimulus":"bees-with-color/bee-B2SM.svg","response":0,"trial_type":"image-button-response","trial_index":152,"time_elapsed":644531,"internal_node_id":"0.0-6.0-0.16","subject_id":"5e04595a4fa02aefdb9c9ced","study_id":"60edd13110225f80f9f3709b","session_id":"6196c1f19467f4411a0e3470","condition":"contingent","relevant_dimensions":["wings","legs"],"bee_group":{"antennae":"X","wings":"1","pattern":"X","legs":"F"},"bonus":1.020000000000001},{"rt":1208.699999988079,"stimulus":"bees-with-color/bee-B1SM.svg","response":0,"trial_type":"image-button-response","trial_index":153,"time_elapsed":645741,"internal_node_id":"0.0-6.0-0.17","subject_id":"5e04595a4fa02aefdb9c9ced","study_id":"60edd13110225f80f9f3709b","session_id":"6196c1f19467f4411a0e3470","condition":"contingent","relevant_dimensions":["wings","legs"],"bee_group":{"antennae":"X","wings":"1","pattern":"X","legs":"F"},"bonus":1.020000000000001},{"rt":965.5999999642372,"stimulus":"bees-with-color/bee-A2DM.svg","response":0,"trial_type":"image-button-response","trial_index":154,"time_elapsed":646707,"internal_node_id":"0.0-6.0-0.18","subject_id":"5e04595a4fa02aefdb9c9ced","study_id":"60edd13110225f80f9f3709b","session_id":"6196c1f19467f4411a0e3470","condition":"contingent","relevant_dimensions":["wings","legs"],"bee_group":{"antennae":"X","wings":"1","pattern":"X","legs":"F"},"bonus":1.020000000000001},{"rt":2327.7000000476837,"stimulus":"bees-with-color/bee-A1DF.svg","response":1,"trial_type":"image-button-response","trial_index":155,"time_elapsed":649036,"internal_node_id":"0.0-6.0-0.19","subject_id":"5e04595a4fa02aefdb9c9ced","study_id":"60edd13110225f80f9f3709b","session_id":"6196c1f19467f4411a0e3470","condition":"contingent","relevant_dimensions":["wings","legs"],"bee_group":{"antennae":"X","wings":"1","pattern":"X","legs":"F"},"bonus":1.020000000000001},{"rt":2022.7000000476837,"stimulus":"bees-with-color/bee-B2DF.svg","response":1,"trial_type":"image-button-response","trial_index":156,"time_elapsed":651060,"internal_node_id":"0.0-6.0-0.20","subject_id":"5e04595a4fa02aefdb9c9ced","study_id":"60edd13110225f80f9f3709b","session_id":"6196c1f19467f4411a0e3470","condition":"contingent","relevant_dimensions":["wings","legs"],"bee_group":{"antennae":"X","wings":"1","pattern":"X","legs":"F"},"bonus":1.020000000000001},{"rt":1207,"stimulus":"bees-with-color/bee-B1DF.svg","response":1,"trial_type":"image-button-response","trial_index":157,"time_elapsed":652268,"internal_node_id":"0.0-6.0-0.21","subject_id":"5e04595a4fa02aefdb9c9ced","study_id":"60edd13110225f80f9f3709b","session_id":"6196c1f19467f4411a0e3470","condition":"contingent","relevant_dimensions":["wings","legs"],"bee_group":{"antennae":"X","wings":"1","pattern":"X","legs":"F"},"bonus":1.020000000000001},{"rt":1063.4000000357628,"stimulus":"bees-with-color/bee-B1DM.svg","response":0,"trial_type":"image-button-response","trial_index":158,"time_elapsed":653332,"internal_node_id":"0.0-6.0-0.22","subject_id":"5e04595a4fa02aefdb9c9ced","study_id":"60edd13110225f80f9f3709b","session_id":"6196c1f19467f4411a0e3470","condition":"contingent","relevant_dimensions":["wings","legs"],"bee_group":{"antennae":"X","wings":"1","pattern":"X","legs":"F"},"bonus":1.020000000000001},{"rt":750.8999999761581,"stimulus":"bees-with-color/bee-A1SM.svg","response":0,"trial_type":"image-button-response","trial_index":159,"time_elapsed":654084,"internal_node_id":"0.0-6.0-0.23","subject_id":"5e04595a4fa02aefdb9c9ced","study_id":"60edd13110225f80f9f3709b","session_id":"6196c1f19467f4411a0e3470","condition":"contingent","relevant_dimensions":["wings","legs"],"bee_group":{"antennae":"X","wings":"1","pattern":"X","legs":"F"},"bonus":1.020000000000001},{"rt":679.2000000476837,"stimulus":"bees-with-color/bee-A1DM.svg","response":0,"trial_type":"image-button-response","trial_index":160,"time_elapsed":654764,"internal_node_id":"0.0-6.0-0.24","subject_id":"5e04595a4fa02aefdb9c9ced","study_id":"60edd13110225f80f9f3709b","session_id":"6196c1f19467f4411a0e3470","condition":"contingent","relevant_dimensions":["wings","legs"],"bee_group":{"antennae":"X","wings":"1","pattern":"X","legs":"F"},"bonus":1.020000000000001},{"rt":2358.899999976158,"stimulus":"bees-with-color/bee-B2SF.svg","response":1,"trial_type":"image-button-response","trial_index":161,"time_elapsed":657124,"internal_node_id":"0.0-6.0-0.25","subject_id":"5e04595a4fa02aefdb9c9ced","study_id":"60edd13110225f80f9f3709b","session_id":"6196c1f19467f4411a0e3470","condition":"contingent","relevant_dimensions":["wings","legs"],"bee_group":{"antennae":"X","wings":"1","pattern":"X","legs":"F"},"bonus":1.020000000000001},{"rt":2543.100000023842,"stimulus":"bees-with-color/bee-A1SF.svg","response":1,"trial_type":"image-button-response","trial_index":162,"time_elapsed":659667,"internal_node_id":"0.0-6.0-0.26","subject_id":"5e04595a4fa02aefdb9c9ced","study_id":"60edd13110225f80f9f3709b","session_id":"6196c1f19467f4411a0e3470","condition":"contingent","relevant_dimensions":["wings","legs"],"bee_group":{"antennae":"X","wings":"1","pattern":"X","legs":"F"},"bonus":1.020000000000001},{"rt":1126.8999999761581,"stimulus":"bees-with-color/bee-B2DM.svg","response":0,"trial_type":"image-button-response","trial_index":163,"time_elapsed":660795,"internal_node_id":"0.0-6.0-0.27","subject_id":"5e04595a4fa02aefdb9c9ced","study_id":"60edd13110225f80f9f3709b","session_id":"6196c1f19467f4411a0e3470","condition":"contingent","relevant_dimensions":["wings","legs"],"bee_group":{"antennae":"X","wings":"1","pattern":"X","legs":"F"},"bonus":1.020000000000001},{"rt":2304.099999964237,"stimulus":"bees-with-color/bee-A2SF.svg","response":0,"trial_type":"image-button-response","trial_index":164,"time_elapsed":663100,"internal_node_id":"0.0