[{"success":true,"trial_type":"fullscreen","trial_index":0,"time_elapsed":3101,"internal_node_id":"0.0-0.0","subject_id":"60f787ec13f475a44c0c53ff","study_id":"60edd13110225f80f9f3709b","session_id":"6196c7089d2690d2ed3b6a32","condition":"full-information","relevant_dimensions":["antennae","legs"],"bee_group":{"antennae":"B","wings":"X","pattern":"X","legs":"M"},"bonus":0.1000000000000003},{"success":true,"timeout":false,"failed_images":[],"failed_audio":[],"failed_video":[],"trial_type":"preload","trial_index":1,"time_elapsed":3772,"internal_node_id":"0.0-1.0","subject_id":"60f787ec13f475a44c0c53ff","study_id":"60edd13110225f80f9f3709b","session_id":"6196c7089d2690d2ed3b6a32","condition":"full-information","relevant_dimensions":["antennae","legs"],"bee_group":{"antennae":"B","wings":"X","pattern":"X","legs":"M"},"bonus":0.1000000000000003},{"rt":2118.100000023842,"stimulus":"Welcome! Press any key to begin.","response":"enter","trial_type":"html-keyboard-response","trial_index":2,"time_elapsed":5890,"internal_node_id":"0.0-2.0","subject_id":"60f787ec13f475a44c0c53ff","study_id":"60edd13110225f80f9f3709b","session_id":"6196c7089d2690d2ed3b6a32","condition":"full-information","relevant_dimensions":["antennae","legs"],"bee_group":{"antennae":"B","wings":"X","pattern":"X","legs":"M"},"bonus":0.1000000000000003},{"view_history":[{"page_index":0,"viewing_time":3983.399999976158},{"page_index":1,"viewing_time":4520.800000011921},{"page_index":2,"viewing_time":7895.100000023842},{"page_index":3,"viewing_time":57336.59999996424},{"page_index":4,"viewing_time":4255.300000011921},{"page_index":5,"viewing_time":3122},{"page_index":6,"viewing_time":4224},{"page_index":7,"viewing_time":4394.100000023842},{"page_index":8,"viewing_time":3767.899999976158},{"page_index":9,"viewing_time":9531.300000011921},{"page_index":10,"viewing_time":2557.699999988079},{"page_index":11,"viewing_time":9241.899999976158},{"page_index":12,"viewing_time":4429.100000023842},{"page_index":13,"viewing_time":991},{"page_index":14,"viewing_time":1792}],"rt":122042.5,"trial_type":"instructions","trial_index":3,"time_elapsed":127934,"internal_node_id":"0.0-3.0-0.0","subject_id":"60f787ec13f475a44c0c53ff","study_id":"60edd13110225f80f9f3709b","session_id":"6196c7089d2690d2ed3b6a32","condition":"full-information","relevant_dimensions":["antennae","legs"],"bee_group":{"antennae":"B","wings":"X","pattern":"X","legs":"M"},"bonus":0.1000000000000003},{"rt":9289.699999988079,"response":{"Q0":["Two or six legs","Stripes or spots on body","Single or double wings","Antennae or no antennae"]},"question_order":[0],"trial_type":"survey-multi-select","trial_index":4,"time_elapsed":137227,"internal_node_id":"0.0-3.0-1.0","subject_id":"60f787ec13f475a44c0c53ff","study_id":"60edd13110225f80f9f3709b","session_id":"6196c7089d2690d2ed3b6a32","condition":"full-information","relevant_dimensions":["antennae","legs"],"bee_group":{"antennae":"B","wings":"X","pattern":"X","legs":"M"},"correct":true,"bonus":0.1000000000000003},{"rt":19661.400000035763,"response":{"Q1":"No.","Q2":"Based on the four features of the bee.","Q3":"You learn if it was friendly or dangerous, but do not alter your bonus."},"question_order":[0,1,2],"trial_type":"survey-multi-choice","trial_index":5,"time_elapsed":156890,"internal_node_id":"0.0-3.0-2.0","subject_id":"60f787ec13f475a44c0c53ff","study_id":"60edd13110225f80f9f3709b","session_id":"6196c7089d2690d2ed3b6a32","condition":"full-information","relevant_dimensions":["antennae","legs"],"bee_group":{"antennae":"B","wings":"X","pattern":"X","legs":"M"},"correct":true,"bonus":0.1000000000000003},{"rt":2103.900000035763,"stimulus":"<p>Congrats, you got everything right<br>When you're ready, click the button below to continue to the experiment.</p>","response":0,"trial_type":"html-button-response","trial_index":6,"time_elapsed":158996,"internal_node_id":"0.0-3.0-3.0","subject_id":"60f787ec13f475a44c0c53ff","study_id":"60edd13110225f80f9f3709b","session_id":"6196c7089d2690d2ed3b6a32","condition":"full-information","relevant_dimensions":["antennae","legs"],"bee_group":{"antennae":"B","wings":"X","pattern":"X","legs":"M"},"bonus":0.1000000000000003},{"rt":3813.100000023842,"stimulus":"bees-with-color/bee-A1DM.svg","response":1,"trial_type":"image-button-response","trial_index":7,"time_elapsed":162811,"internal_node_id":"0.0-4.0-0.0","subject_id":"60f787ec13f475a44c0c53ff","study_id":"60edd13110225f80f9f3709b","session_id":"6196c7089d2690d2ed3b6a32","condition":"full-information","relevant_dimensions":["antennae","legs"],"bee_group":{"antennae":"B","wings":"X","pattern":"X","legs":"M"},"action":"avoid","summary":"bad-avoid","bonus":0.1000000000000003},{"rt":3028.800000011921,"stimulus":"\n                    <p><b>Action: <em>avoid</em></b></p>\n                    <p>This is the bee that you just saw.</p>\n                    <img src=\"bees-with-color/bee-A1DM.svg\" width=\"200\">\n                    <p><span class=\"redText\">Bad choice,</span> the bee was friendly.<br>Your bonus pay is unchanged, and remains at $0.54.</p>\n            ","response":0,"trial_type":"html-button-response","trial_index":8,"time_elapsed":165842,"internal_node_id":"0.0-4.0-1.0","subject_id":"60f787ec13f475a44c0c53ff","study_id":"60edd13110225f80f9f3709b","session_id":"6196c7089d2690d2ed3b6a32","condition":"full-information","relevant_dimensions":["antennae","legs"],"bee_group":{"antennae":"B","wings":"X","pattern":"X","legs":"M"},"bonus":0.1000000000000003},{"rt":2374.5,"stimulus":"bees-with-color/bee-B1DF.svg","response":0,"trial_type":"image-button-response","trial_index":9,"time_elapsed":168218,"internal_node_id":"0.0-4.0-0.1","subject_id":"60f787ec13f475a44c0c53ff","study_id":"60edd13110225f80f9f3709b","session_id":"6196c7089d2690d2ed3b6a32","condition":"full-information","relevant_dimensions":["antennae","legs"],"bee_group":{"antennae":"B","wings":"X","pattern":"X","legs":"M"},"action":"harvest","summary":"good-harvest","bonus":0.1000000000000003},{"rt":2472.699999988079,"stimulus":"\n                    <p><b>Action: <em>harvest</em></b></p>\n                    <p>This is the bee that you just saw.</p>\n                    <img src=\"bees-with-color/bee-B1DF.svg\" width=\"200\">\n                    <p><span class=\"greenText\"><b>Successful harvest!</b></span><br>Your pay has increased by $0.02. Your bonus pay is now $0.56.</p>\n            ","response":0,"trial_type":"html-button-response","trial_index":10,"time_elapsed":170692,"internal_node_id":"0.0-4.0-1.1","subject_id":"60f787ec13f475a44c0c53ff","study_id":"60edd13110225f80f9f3709b","session_id":"6196c7089d2690d2ed3b6a32","condition":"full-information","relevant_dimensions":["antennae","legs"],"bee_group":{"antennae":"B","wings":"X","pattern":"X","legs":"M"},"bonus":0.1000000000000003},{"rt":1643.199999988079,"stimulus":"bees-with-color/bee-B2DF.svg","response":1,"trial_type":"image-button-response","trial_index":11,"time_elapsed":172337,"internal_node_id":"0.0-4.0-0.2","subject_id":"60f787ec13f475a44c0c53ff","study_id":"60edd13110225f80f9f3709b","session_id":"6196c7089d2690d2ed3b6a32","condition":"full-information","relevant_dimensions":["antennae","legs"],"bee_group":{"antennae":"B","wings":"X","pattern":"X","legs":"M"},"action":"avoid","summary":"bad-avoid","bonus":0.1000000000000003},{"rt":2080,"stimulus":"\n                    <p><b>Action: <em>avoid</em></b></p>\n                    <p>This is the bee that you just saw.</p>\n                    <img src=\"bees-with-color/bee-B2DF.svg\" width=\"200\">\n                    <p><span class=\"redText\">Bad choice,</span> the bee was friendly.<br>Your bonus pay is unchanged, and remains at $0.56.</p>\n            ","response":0,"trial_type":"html-button-response","trial_index":12,"time_elapsed":174418,"internal_node_id":"0.0-4.0-1.2","subject_id":"60f787ec13f475a44c0c53ff","study_id":"60edd13110225f80f9f3709b","session_id":"6196c7089d2690d2ed3b6a32","condition":"full-information","relevant_dimensions":["antennae","legs"],"bee_group":{"antennae":"B","wings":"X","pattern":"X","legs":"M"},"bonus":0.1000000000000003},{"rt":3146,"stimulus":"bees-with-color/bee-B1SF.svg","response":0,"trial_type":"image-button-response","trial_index":13,"time_elapsed":177565,"internal_node_id":"0.0-4.0-0.3","subject_id":"60f787ec13f475a44c0c53ff","study_id":"60edd13110225f80f9f3709b","session_id":"6196c7089d2690d2ed3b6a32","condition":"full-information","relevant_dimensions":["antennae","legs"],"bee_group":{"antennae":"B","wings":"X","pattern":"X","legs":"M"},"action":"harvest","summary":"good-harvest","bonus":0.1000000000000003},{"rt":2594.699999988079,"stimulus":"\n                    <p><b>Action: <em>harvest</em></b></p>\n                    <p>This is the bee that you just saw.</p>\n                    <img src=\"bees-with-color/bee-B1SF.svg\" width=\"200\">\n                    <p><span class=\"greenText\"><b>Successful harvest!</b></span><br>Your pay has increased by $0.02. Your bonus pay is now $0.58.</p>\n            ","response":0,"trial_type":"html-button-response","trial_index":14,"time_elapsed":180161,"internal_node_id":"0.0-4.0-1.3","subject_id":"60f787ec13f475a44c0c53ff","study_id":"60edd13110225f80f9f3709b","session_id":"6196c7089d2690d2ed3b6a32","condition":"full-information","relevant_dimensions":["antennae","legs"],"bee_group":{"antennae":"B","wings":"X","pattern":"X","legs":"M"},"bonus":0.1000000000000003},{"rt":1446,"stimulus":"bees-with-color/bee-B1DM.svg","response":0,"trial_type":"image-button-response","trial_index":15,"time_elapsed":181608,"internal_node_id":"0.0-4.0-0.4","subject_id":"60f787ec13f475a44c0c53ff","study_id":"60edd13110225f80f9f3709b","session_id":"6196c7089d2690d2ed3b6a32","condition":"full-information","relevant_dimensions":["antennae","legs"],"bee_group":{"antennae":"B","wings":"X","pattern":"X","legs":"M"},"action":"harvest","summary":"bad-harvest","bonus":0.1000000000000003},{"rt":2538.7999999523163,"stimulus":"\n                    <p><b>Action: <em>harvest</em></b></p>\n                    <p>This is the bee that you just saw.</p>\n                    <img src=\"bees-with-color/bee-B1DM.svg\" width=\"200\">\n                    <p><span class=\"redText\">Bad choice, the bee was angry.</span><br><b>You have been stung!</b><br>Your pay has been decreased by $0.10. Your bonus pay is now $0.48.</p>\n            ","response":0,"trial_type":"html-button-response","trial_index":16,"time_elapsed":184148,"internal_node_id":"0.0-4.0-1.4","subject_id":"60f787ec13f475a44c0c53ff","study_id":"60edd13110225f80f9f3709b","session_id":"6196c7089d2690d2ed3b6a32","condition":"full-information","relevant_dimensions":["antennae","legs"],"bee_group":{"antennae":"B","wings":"X","pattern":"X","legs":"M"},"bonus":0.1000000000000003},{"rt":6987.199999988079,"stimulus":"bees-with-color/bee-B2DM.svg","response":0,"trial_type":"image-button-response","trial_index":17,"time_elapsed":191136,"internal_node_id":"0.0-4.0-0.5","subject_id":"60f787ec13f475a44c0c53ff","study_id":"60edd13110225f80f9f3709b","session_id":"6196c7089d2690d2ed3b6a32","condition":"full-information","relevant_dimensions":["antennae","legs"],"bee_group":{"antennae":"B","wings":"X","pattern":"X","legs":"M"},"action":"harvest","summary":"bad-harvest","bonus":0.1000000000000003},{"rt":1356.699999988079,"stimulus":"\n                    <p><b>Action: <em>harvest</em></b></p>\n                    <p>This is the bee that you just saw.</p>\n                    <img src=\"bees-with-color/bee-B2DM.svg\" width=\"200\">\n                    <p><span class=\"redText\">Bad choice, the bee was angry.</span><br><b>You have been stung!</b><br>Your pay has been decreased by $0.10. Your bonus pay is now $0.38.</p>\n            ","response":0,"trial_type":"html-button-response","trial_index":18,"time_elapsed":192494,"internal_node_id":"0.0-4.0-1.5","subject_id":"60f787ec13f475a44c0c53ff","study_id":"60edd13110225f80f9f3709b","session_id":"6196c7089d2690d2ed3b6a32","condition":"full-information","relevant_dimensions":["antennae","legs"],"bee_group":{"antennae":"B","wings":"X","pattern":"X","legs":"M"},"bonus":0.1000000000000003},{"rt":2365.600000023842,"stimulus":"bees-with-color/bee-A2SF.svg","response":0,"trial_type":"image-button-response","trial_index":19,"time_elapsed":194861,"internal_node_id":"0.0-4.0-0.6","subject_id":"60f787ec13f475a44c0c53ff","study_id":"60edd13110225f80f9f3709b","session_id":"6196c7089d2690d2ed3b6a32","condition":"full-information","relevant_dimensions":["antennae","legs"],"bee_group":{"antennae":"B","wings":"X","pattern":"X","legs":"M"},"action":"harvest","summary":"good-harvest","bonus":0.1000000000000003},{"rt":3121.100000023842,"stimulus":"\n                    <p><b>Action: <em>harvest</em></b></p>\n                    <p>This is the bee that you just saw.</p>\n                    <img src=\"bees-with-color/bee-A2SF.svg\" width=\"200\">\n                    <p><span class=\"greenText\"><b>Successful harvest!</b></span><br>Your pay has increased by $0.02. Your bonus pay is now $0.40.</p>\n            ","response":0,"trial_type":"html-button-response","trial_index":20,"time_elapsed":197983,"internal_node_id":"0.0-4.0-1.6","subject_id":"60f787ec13f475a44c0c53ff","study_id":"60edd13110225f80f9f3709b","session_id":"6196c7089d2690d2ed3b6a32","condition":"full-information","relevant_dimensions":["antennae","legs"],"bee_group":{"antennae":"B","wings":"X","pattern":"X","legs":"M"},"bonus":0.1000000000000003},{"rt":3709.800000011921,"stimulus":"bees-with-color/bee-B2SF.svg","response":0,"trial_type":"image-button-response","trial_index":21,"time_elapsed":201694,"internal_node_id":"0.0-4.0-0.7","subject_id":"60f787ec13f475a44c0c53ff","study_id":"60edd13110225f80f9f3709b","session_id":"6196c7089d2690d2ed3b6a32","condition":"full-information","relevant_dimensions":["antennae","legs"],"bee_group":{"antennae":"B","wings":"X","pattern":"X","legs":"M"},"action":"harvest","summary":"good-harvest","bonus":0.1000000000000003},{"rt":3328,"stimulus":"\n                    <p><b>Action: <em>harvest</em></b></p>\n                    <p>This is the bee that you just saw.</p>\n                    <img src=\"bees-with-color/bee-B2SF.svg\" width=\"200\">\n                    <p><span class=\"greenText\"><b>Successful harvest!</b></span><br>Your pay has increased by $0.02. Your bonus pay is now $0.42.</p>\n            ","response":0,"trial_type":"html-button-response","trial_index":22,"time_elapsed":205023,"internal_node_id":"0.0-4.0-1.7","subject_id":"60f787ec13f475a44c0c53ff","study_id":"60edd13110225f80f9f3709b","session_id":"6196c7089d2690d2ed3b6a32","condition":"full-information","relevant_dimensions":["antennae","legs"],"bee_group":{"antennae":"B","wings":"X","pattern":"X","legs":"M"},"bonus":0.1000000000000003},{"rt":1579.2999999523163,"stimulus":"bees-with-color/bee-A1DF.svg","response":1,"trial_type":"image-button-response","trial_index":23,"time_elapsed":206604,"internal_node_id":"0.0-4.0-0.8","subject_id":"60f787ec13f475a44c0c53ff","study_id":"60edd13110225f80f9f3709b","session_id":"6196c7089d2690d2ed3b6a32","condition":"full-information","relevant_dimensions":["antennae","legs"],"bee_group":{"antennae":"B","wings":"X","pattern":"X","legs":"M"},"action":"avoid","summary":"bad-avoid","bonus":0.1000000000000003},{"rt":1994.8999999761581,"stimulus":"\n                    <p><b>Action: <em>avoid</em></b></p>\n                    <p>This is the bee that you just saw.</p>\n                    <img src=\"bees-with-color/bee-A1DF.svg\" width=\"200\">\n                    <p><span class=\"redText\">Bad choice,</span> the bee was friendly.<br>Your bonus pay is unchanged, and remains at $0.42.</p>\n            ","response":0,"trial_type":"html-button-response","trial_index":24,"time_elapsed":208600,"internal_node_id":"0.0-4.0-1.8","subject_id":"60f787ec13f475a44c0c53ff","study_id":"60edd13110225f80f9f3709b","session_id":"6196c7089d2690d2ed3b6a32","condition":"full-information","relevant_dimensions":["antennae","legs"],"bee_group":{"antennae":"B","wings":"X","pattern":"X","legs":"M"},"bonus":0.1000000000000003},{"rt":929,"stimulus":"bees-with-color/bee-B2SM.svg","response":1,"trial_type":"image-button-response","trial_index":25,"time_elapsed":209530,"internal_node_id":"0.0-4.0-0.9","subject_id":"60f787ec13f475a44c0c53ff","study_id":"60edd13110225f80f9f3709b","session_id":"6196c7089d2690d2ed3b6a32","condition":"full-information","relevant_dimensions":["antennae","legs"],"bee_group":{"antennae":"B","wings":"X","pattern":"X","legs":"M"},"action":"avoid","summary":"good-avoid","bonus":0.1000000000000003},{"rt":3195.7999999523163,"stimulus":"\n                    <p><b>Action: <em>avoid</em></b></p>\n                    <p>This is the bee that you just saw.</p>\n                    <img src=\"bees-with-color/bee-B2SM.svg\" width=\"200\">\n                    <p><span class=\"greenText\">Good choice!</span>  This bee would have stung you.<br>Your bonus pay is unchanged, and remains at $0.42.</p>\n            ","response":0,"trial_type":"html-button-response","trial_index":26,"time_elapsed":212727,"internal_node_id":"0.0-4.0-1.9","subject_id":"60f787ec13f475a44c0c53ff","study_id":"60edd13110225f80f9f3709b","session_id":"6196c7089d2690d2ed3b6a32","condition":"full-information","relevant_dimensions":["antennae","legs"],"bee_group":{"antennae":"B","wings":"X","pattern":"X","legs":"M"},"bonus":0.1000000000000003},{"rt":1443.3999999761581,"stimulus":"bees-with-color/bee-A2DM.svg","response":0,"trial_type":"image-button-response","trial_index":27,"time_elapsed":214172,"internal_node_id":"0.0-4.0-0.10","subject_id":"60f787ec13f475a44c0c53ff","study_id":"60edd13110225f80f9f3709b","session_id":"6196c7089d2690d2ed3b6a32","condition":"full-information","relevant_dimensions":["antennae","legs"],"bee_group":{"antennae":"B","wings":"X","pattern":"X","legs":"M"},"action":"harvest","summary":"good-harvest","bonus":0.1000000000000003},{"rt":2245,"stimulus":"\n                    <p><b>Action: <em>harvest</em></b></p>\n                    <p>This is the bee that you just saw.</p>\n                    <img src=\"bees-with-color/bee-A2DM.svg\" width=\"200\">\n                    <p><span class=\"greenText\"><b>Successful harvest!</b></span><br>Your pay has increased by $0.02. Your bonus pay is now $0.44.</p>\n            ","response":0,"trial_type":"html-button-response","trial_index":28,"time_elapsed":216418,"internal_node_id":"0.0-4.0-1.10","subject_id":"60f787ec13f475a44c0c53ff","study_id":"60edd13110225f80f9f3709b","session_id":"6196c7089d2690d2ed3b6a32","condition":"full-information","relevant_dimensions":["antennae","legs"],"bee_group":{"antennae":"B","wings":"X","pattern":"X","legs":"M"},"bonus":0.1000000000000003},{"rt":1161.699999988079,"stimulus":"bees-with-color/bee-A2DF.svg","response":0,"trial_type":"image-button-response","trial_index":29,"time_elapsed":217581,"internal_node_id":"0.0-4.0-0.11","subject_id":"60f787ec13f475a44c0c53ff","study_id":"60edd13110225f80f9f3709b","session_id":"6196c7089d2690d2ed3b6a32","condition":"full-information","relevant_dimensions":["antennae","legs"],"bee_group":{"antennae":"B","wings":"X","pattern":"X","legs":"M"},"action":"harvest","summary":"good-harvest","bonus":0.1000000000000003},{"rt":1881.3999999761581,"stimulus":"\n                    <p><b>Action: <em>harvest</em></b></p>\n                    <p>This is the bee that you just saw.</p>\n                    <img src=\"bees-with-color/bee-A2DF.svg\" width=\"200\">\n                    <p><span class=\"greenText\"><b>Successful harvest!</b></span><br>Your pay has increased by $0.02. Your bonus pay is now $0.46.</p>\n            ","response":0,"trial_type":"html-button-response","trial_index":30,"time_elapsed":219463,"internal_node_id":"0.0-4.0-1.11","subject_id":"60f787ec13f475a44c0c53ff","study_id":"60edd13110225f80f9f3709b","session_id":"6196c7089d2690d2ed3b6a32","condition":"full-information","relevant_dimensions":["antennae","legs"],"bee_group":{"antennae":"B","wings":"X","pattern":"X","legs":"M"},"bonus":0.1000000000000003},{"rt":1012.5999999642372,"stimulus":"bees-with-color/bee-A2SM.svg","response":1,"trial_type":"image-button-response","trial_index":31,"time_elapsed":220477,"internal_node_id":"0.0-4.0-0.12","subject_id":"60f787ec13f475a44c0c53ff","study_id":"60edd13110225f80f9f3709b","session_id":"6196c7089d2690d2ed3b6a32","condition":"full-information","relevant_dimensions":["antennae","legs"],"bee_group":{"antennae":"B","wings":"X","pattern":"X","legs":"M"},"action":"avoid","summary":"bad-avoid","bonus":0.1000000000000003},{"rt":1279.0999999642372,"stimulus":"\n                    <p><b>Action: <em>avoid</em></b></p>\n                    <p>This is the bee that you just saw.</p>\n                    <img src=\"bees-with-color/bee-A2SM.svg\" width=\"200\">\n                    <p><span class=\"redText\">Bad choice,</span> the bee was friendly.<br>Your bonus pay is unchanged, and remains at $0.46.</p>\n            ","response":0,"trial_type":"html-button-response","trial_index":32,"time_elapsed":221757,"internal_node_id":"0.0-4.0-1.12","subject_id":"60f787ec13f475a44c0c53ff","study_id":"60edd13110225f80f9f3709b","session_id":"6196c7089d2690d2ed3b6a32","condition":"full-information","relevant_dimensions":["antennae","legs"],"bee_group":{"antennae":"B","wings":"X","pattern":"X","legs":"M"},"bonus":0.1000000000000003},{"rt":689.1000000238419,"stimulus":"bees-with-color/bee-A1SM.svg","response":1,"trial_type":"image-button-response","trial_index":33,"time_elapsed":222447,"internal_node_id":"0.0-4.0-0.13","subject_id":"60f787ec13f475a44c0c53ff","study_id":"60edd13110225f80f9f3709b","session_id":"6196c7089d2690d2ed3b6a32","condition":"full-information","relevant_dimensions":["antennae","legs"],"bee_group":{"antennae":"B","wings":"X","pattern":"X","legs":"M"},"action":"avoid","summary":"bad-avoid","bonus":0.1000000000000003},{"rt":762.3999999761581,"stimulus":"\n                    <p><b>Action: <em>avoid</em></b></p>\n                    <p>This is the bee that you just saw.</p>\n                    <img src=\"bees-with-color/bee-A1SM.svg\" width=\"200\">\n                    <p><span class=\"redText\">Bad choice,</span> the bee was friendly.<br>Your bonus pay is unchanged, and remains at $0.46.</p>\n            ","response":0,"trial_type":"html-button-response","trial_index":34,"time_elapsed":223210,"internal_node_id":"0.0-4.0-1.13","subject_id":"60f787ec13f475a44c0c53ff","study_id":"60edd13110225f80f9f3709b","session_id":"6196c7089d2690d2ed3b6a32","condition":"full-information","relevant_dimensions":["antennae","legs"],"bee_group":{"antennae":"B","wings":"X","pattern":"X","legs":"M"},"bonus":0.1000000000000003},{"rt":566.6999999880791,"stimulus":"bees-with-color/bee-B1SM.svg","response":1,"trial_type":"image-button-response","trial_index":35,"time_elapsed":223778,"internal_node_id":"0.0-4.0-0.14","subject_id":"60f787ec13f475a44c0c53ff","study_id":"60edd13110225f80f9f3709b","session_id":"6196c7089d2690d2ed3b6a32","condition":"full-information","relevant_dimensions":["antennae","legs"],"bee_group":{"antennae":"B","wings":"X","pattern":"X","legs":"M"},"action":"avoid","summary":"good-avoid","bonus":0.1000000000000003},{"rt":5213,"stimulus":"\n                    <p><b>Action: <em>avoid</em></b></p>\n                    <p>This is the bee that you just saw.</p>\n                    <img src=\"bees-with-color/bee-B1SM.svg\" width=\"200\">\n                    <p><span class=\"greenText\">Good choice!</span>  This bee would have stung you.<br>Your bonus pay is unchanged, and remains at $0.46.</p>\n            ","response":0,"trial_type":"html-button-response","trial_index":36,"time_elapsed":228992,"internal_node_id":"0.0-4.0-1.14","subject_id":"60f787ec13f475a44c0c53ff","study_id":"60edd13110225f80f9f3709b","session_id":"6196c7089d2690d2ed3b6a32","condition":"full-information","relevant_dimensions":["antennae","legs"],"bee_group":{"antennae":"B","wings":"X","pattern":"X","legs":"M"},"bonus":0.1000000000000003},{"rt":1308.8999999761581,"stimulus":"bees-with-color/bee-A1SF.svg","response":0,"trial_type":"image-button-response","trial_index":37,"time_elapsed":230302,"internal_node_id":"0.0-4.0-0.15","subject_id":"60f787ec13f475a44c0c53ff","study_id":"60edd13110225f80f9f3709b","session_id":"6196c7089d2690d2ed3b6a32","condition":"full-information","relevant_dimensions":["antennae","legs"],"bee_group":{"antennae":"B","wings":"X","pattern":"X","legs":"M"},"action":"harvest","summary":"good-harvest","bonus":0.1000000000000003},{"rt":2328,"stimulus":"\n                    <p><b>Action: <em>harvest</em></b></p>\n                    <p>This is the bee that you just saw.</p>\n                    <img src=\"bees-with-color/bee-A1SF.svg\" width=\"200\">\n                    <p><span class=\"greenText\"><b>Successful harvest!</b></span><br>Your pay has increased by $0.02. Your bonus pay is now $0.48.</p>\n            ","response":0,"trial_type":"html-button-response","trial_index":38,"time_elapsed":232631,"internal_node_id":"0.0-4.0-1.15","subject_id":"60f787ec13f475a44c0c53ff","study_id":"60edd13110225f80f9f3709b","session_id":"6196c7089d2690d2ed3b6a32","condition":"full-information","relevant_dimensions":["antennae","legs"],"bee_group":{"antennae":"B","wings":"X","pattern":"X","legs":"M"},"bonus":0.1000000000000003},{"rt":1325,"stimulus":"bees-with-color/bee-A2DF.svg","response":0,"trial_type":"image-button-response","trial_index":39,"time_elapsed":233957,"internal_node_id":"0.0-4.0-0.16","subject_id":"60f787ec13f475a44c0c53ff","study_id":"60edd13110225f80f9f3709b","session_id":"6196c7089d2690d2ed3b6a32","condition":"full-information","relevant_dimensions":["antennae","legs"],"bee_group":{"antennae":"B","wings":"X","pattern":"X","legs":"M"},"action":"harvest","summary":"good-harvest","bonus":0.1000000000000003},{"rt":2520.900000035763,"stimulus":"\n                    <p><b>Action: <em>harvest</em></b></p>\n                    <p>This is the bee that you just saw.</p>\n                    <img src=\"bees-with-color/bee-A2DF.svg\" width=\"200\">\n                    <p><span class=\"greenText\"><b>Successful harvest!</b></span><br>Your pay has increased by $0.02. Your bonus pay is now $0.50.</p>\n            ","response":0,"trial_type":"html-button-response","trial_index":40,"time_elapsed":236479,"internal_node_id":"0.0-4.0-1.16","subject_id":"60f787ec13f475a44c0c53ff","study_id":"60edd13110225f80f9f3709b","session_id":"6196c7089d2690d2ed3b6a32","condition":"full-information","relevant_dimensions":["antennae","legs"],"bee_group":{"antennae":"B","wings":"X","pattern":"X","legs":"M"},"bonus":0.1000000000000003},{"rt":1693,"stimulus":"bees-with-color/bee-A2DM.svg","response":0,"trial_type":"image-button-response","trial_index":41,"time_elapsed":238173,"internal_node_id":"0.0-4.0-0.17","subject_id":"60f787ec13f475a44c0c53ff","study_id":"60edd13110225f80f9f3709b","session_id":"6196c7089d2690d2ed3b6a32","condition":"full-information","relevant_dimensions":["antennae","legs"],"bee_group":{"antennae":"B","wings":"X","pattern":"X","legs":"M"},"action":"harvest","summary":"good-harvest","bonus":0.1000000000000003},{"rt":1298.699999988079,"stimulus":"\n                    <p><b>Action: <em>harvest</em></b></p>\n                    <p>This is the bee that you just saw.</p>\n                    <img src=\"bees-with-color/bee-A2DM.svg\" width=\"200\">\n                    <p><span class=\"greenText\"><b>Successful harvest!</b></span><br>Your pay has increased by $0.02. Your bonus pay is now $0.52.</p>\n            ","response":0,"trial_type":"html-button-response","trial_index":42,"time_elapsed":239473,"internal_node_id":"0.0-4.0-1.17","subject_id":"60f787ec13f475a44c0c53ff","study_id":"60edd13110225f80f9f3709b","session_id":"6196c7089d2690d2ed3b6a32","condition":"full-information","relevant_dimensions":["antennae","legs"],"bee_group":{"antennae":"B","wings":"X","pattern":"X","legs":"M"},"bonus":0.1000000000000003},{"rt":1348.8999999761581,"stimulus":"bees-with-color/bee-B1DF.svg","response":1,"trial_type":"image-button-response","trial_index":43,"time_elapsed":240823,"internal_node_id":"0.0-4.0-0.18","subject_id":"60f787ec13f475a44c0c53ff","study_id":"60edd13110225f80f9f3709b","session_id":"6196c7089d2690d2ed3b6a32","condition":"full-information","relevant_dimensions":["antennae","legs"],"bee_group":{"antennae":"B","wings":"X","pattern":"X","legs":"M"},"action":"avoid","summary":"bad-avoid","bonus":0.1000000000000003},{"rt":1212.8999999761581,"stimulus":"\n                    <p><b>Action: <em>avoid</em></b></p>\n                    <p>This is the bee that you just saw.</p>\n                    <img src=\"bees-with-color/bee-B1DF.svg\" width=\"200\">\n                    <p><span class=\"redText\">Bad choice,</span> the bee was friendly.<br>Your bonus pay is unchanged, and remains at $0.52.</p>\n            ","response":0,"trial_type":"html-button-response","trial_index":44,"time_elapsed":242037,"internal_node_id":"0.0-4.0-1.18","subject_id":"60f787ec13f475a44c0c53ff","study_id":"60edd13110225f80f9f3709b","session_id":"6196c7089d2690d2ed3b6a32","condition":"full-information","relevant_dimensions":["antennae","legs"],"bee_group":{"antennae":"B","wings":"X","pattern":"X","legs":"M"},"bonus":0.1000000000000003},{"rt":1840,"stimulus":"bees-with-color/bee-A2SM.svg","response":1,"trial_type":"image-button-response","trial_index":45,"time_elapsed":243878,"internal_node_id":"0.0-4.0-0.19","subject_id":"60f787ec13f475a44c0c53ff","study_id":"60edd13110225f80f9f3709b","session_id":"6196c7089d2690d2ed3b6a32","condition":"full-information","relevant_dimensions":["antennae","legs"],"bee_group":{"antennae":"B","wings":"X","pattern":"X","legs":"M"},"action":"avoid","summary":"bad-avoid","bonus":0.1000000000000003},{"rt":887,"stimulus":"\n                    <p><b>Action: <em>avoid</em></b></p>\n                    <p>This is the bee that you just saw.</p>\n                    <img src=\"bees-with-color/bee-A2SM.svg\" width=\"200\">\n                    <p><span class=\"redText\">Bad choice,</span> the bee was friendly.<br>Your bonus pay is unchanged, and remains at $0.52.</p>\n            ","response":0,"trial_type":"html-button-response","trial_index":46,"time_elapsed":244766,"internal_node_id":"0.0-4.0-1.19","subject_id":"60f787ec13f475a44c0c53ff","study_id":"60edd13110225f80f9f3709b","session_id":"6196c7089d2690d2ed3b6a32","condition":"full-information","relevant_dimensions":["antennae","legs"],"bee_group":{"antennae":"B","wings":"X","pattern":"X","legs":"M"},"bonus":0.1000000000000003},{"rt":860.1000000238419,"stimulus":"bees-with-color/bee-B2SM.svg","response":0,"trial_type":"image-button-response","trial_index":47,"time_elapsed":245627,"internal_node_id":"0.0-4.0-0.20","subject_id":"60f787ec13f475a44c0c53ff","study_id":"60edd13110225f80f9f3709b","session_id":"6196c7089d2690d2ed3b6a32","condition":"full-information","relevant_dimensions":["antennae","legs"],"bee_group":{"antennae":"B","wings":"X","pattern":"X","legs":"M"},"action":"harvest","summary":"bad-harvest","bonus":0.1000000000000003},{"rt":6113.799999952316,"stimulus":"\n                    <p><b>Action: <em>harvest</em></b></p>\n                    <p>This is the bee that you just saw.</p>\n                    <img src=\"bees-with-color/bee-B2SM.svg\" width=\"200\">\n                    <p><span class=\"redText\">Bad choice, the bee was angry.</span><br><b>You have been stung!</b><br>Your pay has been decreased by $0.10. Your bonus pay is now $0.42.</p>\n            ","response":0,"trial_type":"html-button-response","trial_index":48,"time_elapsed":251742,"internal_node_id":"0.0-4.0-1.20","subject_id":"60f787ec13f475a44c0c53ff","study_id":"60edd13110225f80f9f3709b","session_id":"6196c7089d2690d2ed3b6a32","condition":"full-information","relevant_dimensions":["antennae","legs"],"bee_group":{"antennae":"B","wings":"X","pattern":"X","legs":"M"},"bonus":0.1000000000000003},{"rt":6713,"stimulus":"bees-with-color/bee-A1SM.svg","response":1,"trial_type":"image-button-response","trial_index":49,"time_elapsed":258456,"internal_node_id":"0.0-4.0-0.21","subject_id":"60f787ec13f475a44c0c53ff","study_id":"60edd13110225f80f9f3709b","session_id":"6196c7089d2690d2ed3b6a32","condition":"full-information","relevant_dimensions":["antennae","legs"],"bee_group":{"antennae":"B","wings":"X","pattern":"X","legs":"M"},"action":"avoid","summary":"bad-avoid","bonus":0.1000000000000003},{"rt":10072.299999952316,"stimulus":"\n                    <p><b>Action: <em>avoid</em></b></p>\n                    <p>This is the bee that you just saw.</p>\n                    <img src=\"bees-with-color/bee-A1SM.svg\" width=\"200\">\n                    <p><span class=\"redText\">Bad choice,</span> the bee was friendly.<br>Your bonus pay is unchanged, and remains at $0.42.</p>\n            ","response":0,"trial_type":"html-button-response","trial_index":50,"time_elapsed":268530,"internal_node_id":"0.0-4.0-1.21","subject_id":"60f787ec13f475a44c0c53ff","study_id":"60edd13110225f80f9f3709b","session_id":"6196c7089d2690d2ed3b6a32","condition":"full-information","relevant_dimensions":["antennae","legs"],"bee_group":{"antennae":"B","wings":"X","pattern":"X","legs":"M"},"bonus":0.1000000000000003},{"rt":1625.7999999523163,"stimulus":"bees-with-color/bee-A1DF.svg","response":0,"trial_type":"image-button-response","trial_index":51,"time_elapsed":270157,"internal_node_id":"0.0-4.0-0.22","subject_id":"60f787ec13f475a44c0c53ff","study_id":"60edd13110225f80f9f3709b","session_id":"6196c7089d2690d2ed3b6a32","condition":"full-information","relevant_dimensions":["antennae","legs"],"bee_group":{"antennae":"B","wings":"X","pattern":"X","legs":"M"},"action":"harvest","summary":"good-harvest","bonus":0.1000000000000003},{"rt":1497,"stimulus":"\n                    <p><b>Action: <em>harvest</em></b></p>\n                    <p>This is the bee that you just saw.</p>\n                    <img src=\"bees-with-color/bee-A1DF.svg\" width=\"200\">\n                    <p><span class=\"greenText\"><b>Successful harvest!</b></span><br>Your pay has increased by $0.02. Your bonus pay is now $0.44.</p>\n            ","response":0,"trial_type":"html-button-response","trial_index":52,"time_elapsed":271655,"internal_node_id":"0.0-4.0-1.22","subject_id":"60f787ec13f475a44c0c53ff","study_id":"60edd13110225f80f9f3709b","session_id":"6196c7089d2690d2ed3b6a32","condition":"full-information","relevant_dimensions":["antennae","legs"],"bee_group":{"antennae":"B","wings":"X","pattern":"X","legs":"M"},"bonus":0.1000000000000003},{"rt":1236.199999988079,"stimulus":"bees-with-color/bee-B1SM.svg","response":1,"trial_type":"image-button-response","trial_index":53,"time_elapsed":272892,"internal_node_id":"0.0-4.0-0.23","subject_id":"60f787ec13f475a44c0c53ff","study_id":"60edd13110225f80f9f3709b","session_id":"6196c7089d2690d2ed3b6a32","condition":"full-information","relevant_dimensions":["antennae","legs"],"bee_group":{"antennae":"B","wings":"X","pattern":"X","legs":"M"},"action":"avoid","summary":"good-avoid","bonus":0.1000000000000003},{"rt":9308.199999988079,"stimulus":"\n                    <p><b>Action: <em>avoid</em></b></p>\n                    <p>This is the bee that you just saw.</p>\n                    <img src=\"bees-with-color/bee-B1SM.svg\" width=\"200\">\n                    <p><span class=\"greenText\">Good choice!</span>  This bee would have stung you.<br>Your bonus pay is unchanged, and remains at $0.44.</p>\n            ","response":0,"trial_type":"html-button-response","trial_index":54,"time_elapsed":282201,"internal_node_id":"0.0-4.0-1.23","subject_id":"60f787ec13f475a44c0c53ff","study_id":"60edd13110225f80f9f3709b","session_id":"6196c7089d2690d2ed3b6a32","condition":"full-information","relevant_dimensions":["antennae","legs"],"bee_group":{"antennae":"B","wings":"X","pattern":"X","legs":"M"},"bonus":0.1000000000000003},{"rt":8541,"stimulus":"bees-with-color/bee-B2SF.svg","response":1,"trial_type":"image-button-response","trial_index":55,"time_elapsed":290743,"internal_node_id":"0.0-4.0-0.24","subject_id":"60f787ec13f475a44c0c53ff","study_id":"60edd13110225f80f9f3709b","session_id":"6196c7089d2690d2ed3b6a32","condition":"full-information","relevant_dimensions":["antennae","legs"],"bee_group":{"antennae":"B","wings":"X","pattern":"X","legs":"M"},"action":"avoid","summary":"bad-avoid","bonus":0.1000000000000003},{"rt":1609.7999999523163,"stimulus":"\n                    <p><b>Action: <em>avoid</em></b></p>\n                    <p>This is the bee that you just saw.</p>\n                    <img src=\"bees-with-color/bee-B2SF.svg\" width=\"200\">\n                    <p><span class=\"redText\">Bad choice,</span> the bee was friendly.<br>Your bonus pay is unchanged, and remains at $0.44.</p>\n            ","response":0,"trial_type":"html-button-response","trial_index":56,"time_elapsed":292354,"internal_node_id":"0.0-4.0-1.24","subject_id":"60f787ec13f475a44c0c53ff","study_id":"60edd13110225f80f9f3709b","session_id":"6196c7089d2690d2ed3b6a32","condition":"full-information","relevant_dimensions":["antennae","legs"],"bee_group":{"antennae":"B","wings":"X","pattern":"X","legs":"M"},"bonus":0.1000000000000003},{"rt":1223,"stimulus":"bees-with-color/bee-A2SF.svg","response":0,"trial_type":"image-button-response","trial_index":57,"time_elapsed":293578,"internal_node_id":"0.0-4.0-0.25","subject_id":"60f787ec13f475a44c0c53ff","study_id":"60edd13110225f80f9f3709b","session_id":"6196c7089d2690d2ed3b6a32","condition":"full-information","relevant_dimensions":["antennae","legs"],"bee_group":{"antennae":"B","wings":"X","pattern":"X","legs":"M"},"action":"harvest","summary":"good-harvest","bonus":0.1000000000000003},{"rt":13564,"stimulus":"\n                    <p><b>Action: <em>harvest</em></b></p>\n                    <p>This is the bee that you just saw.</p>\n                    <img src=\"bees-with-color/bee-A2SF.svg\" width=\"200\">\n                    <p><span class=\"greenText\"><b>Successful harvest!</b></span><br>Your pay has increased by $0.02. Your bonus pay is now $0.46.</p>\n            ","response":0,"trial_type":"html-button-response","trial_index":58,"time_elapsed":307143,"internal_node_id":"0.0-4.0-1.25","subject_id":"60f787ec13f475a44c0c53ff","study_id":"60edd13110225f80f9f3709b","session_id":"6196c7089d2690d2ed3b6a32","condition":"full-information","relevant_dimensions":["antennae","legs"],"bee_group":{"antennae":"B","wings":"X","pattern":"X","legs":"M"},"bonus":0.1000000000000003},{"rt":14807.699999988079,"stimulus":"bees-with-color/bee-B2DF.svg","response":0,"trial_type":"image-button-response","trial_index":59,"time_elapsed":321952,"internal_node_id":"0.0-4.0-0.26","subject_id":"60f787ec13f475a44c0c53ff","study_id":"60edd13110225f80f9f3709b","session_id":"6196c7089d2690d2ed3b6a32","condition":"full-information","relevant_dimensions":["antennae","legs"],"bee_group":{"antennae":"B","wings":"X","pattern":"X","legs":"M"},"action":"harvest","summary":"good-harvest","bonus":0.1000000000000003},{"rt":1078.0999999642372,"stimulus":"\n                    <p><b>Action: <em>harvest</em></b></p>\n                    <p>This is the bee that you just saw.</p>\n                    <img src=\"bees-with-color/bee-B2DF.svg\" width=\"200\">\n                    <p><span class=\"greenText\"><b>Successful harvest!</b></span><br>Your pay has increased by $0.02. Your bonus pay is now $0.48.</p>\n            ","response":0,"trial_type":"html-button-response","trial_index":60,"time_elapsed":323031,"internal_node_id":"0.0-4.0-1.26","subject_id":"60f787ec13f475a44c0c53ff","study_id":"60edd13110225f80f9f3709b","session_id":"6196c7089d2690d2ed3b6a32","condition":"full-information","relevant_dimensions":["antennae","legs"],"bee_group":{"antennae":"B","wings":"X","pattern":"X","legs":"M"},"bonus":0.1000000000000003},{"rt":870.8000000119209,"stimulus":"bees-with-color/bee-A1DM.svg","response":0,"trial_type":"image-button-response","trial_index":61,"time_elapsed":323903,"internal_node_id":"0.0-4.0-0.27","subject_id":"60f787ec13f475a44c0c53ff","study_id":"60edd13110225f80f9f3709b","session_id":"6196c7089d2690d2ed3b6a32","condition":"full-information","relevant_dimensions":["antennae","legs"],"bee_group":{"antennae":"B","wings":"X","pattern":"X","legs":"M"},"action":"harvest","summary":"good-harvest","bonus":0.1000000000000003},{"rt":1038.0999999642372,"stimulus":"\n                    <p><b>Action: <em>harvest</em></b></p>\n                    <p>This is the bee that you just saw.</p>\n                    <img src=\"bees-with-color/bee-A1DM.svg\" width=\"200\">\n                    <p><span class=\"greenText\"><b>Successful harvest!</b></span><br>Your pay has increased by $0.02. Your bonus pay is now $0.50.</p>\n            ","response":0,"trial_type":"html-button-response","trial_index":62,"time_elapsed":324942,"internal_node_id":"0.0-4.0-1.27","subject_id":"60f787ec13f475a44c0c53ff","study_id":"60edd13110225f80f9f3709b","session_id":"6196c7089d2690d2ed3b6a32","condition":"full-information","relevant_dimensions":["antennae","legs"],"bee_group":{"antennae":"B","wings":"X","pattern":"X","legs":"M"},"bonus":0.1000000000000003},{"rt":1146.9000000357628,"stimulus":"bees-with-color/bee-A1SF.svg","response":1,"trial_type":"image-button-response","trial_index":63,"time_elapsed":326089,"internal_node_id":"0.0-4.0-0.28","subject_id":"60f787ec13f475a44c0c53ff","study_id":"60edd13110225f80f9f3709b","session_id":"6196c7089d2690d2ed3b6a32","condition":"full-information","relevant_dimensions":["antennae","legs"],"bee_group":{"antennae":"B","wings":"X","pattern":"X","legs":"M"},"action":"avoid","summary":"bad-avoid","bonus":0.1000000000000003},{"rt":7861.199999988079,"stimulus":"\n                    <p><b>Action: <em>avoid</em></b></p>\n                    <p>This is the bee that you just saw.</p>\n                    <img src=\"bees-with-color/bee-A1SF.svg\" width=\"200\">\n                    <p><span class=\"redText\">Bad choice,</span> the bee was friendly.<br>Your bonus pay is unchanged, and remains at $0.50.</p>\n            ","response":0,"trial_type":"html-button-response","trial_index":64,"time_elapsed":333951,"internal_node_id":"0.0-4.0-1.28","subject_id":"60f787ec13f475a44c0c53ff","study_id":"60edd13110225f80f9f3709b","session_id":"6196c7089d2690d2ed3b6a32","condition":"full-information","relevant_dimensions":["antennae","legs"],"bee_group":{"antennae":"B","wings":"X","pattern":"X","legs":"M"},"bonus":0.1000000000000003},{"rt":1665.7999999523163,"stimulus":"bees-with-color/bee-B2DM.svg","response":0,"trial_type":"image-button-response","trial_index":65,"time_elapsed":335618,"internal_node_id":"0.0-4.0-0.29","subject_id":"60f787ec13f475a44c0c53ff","study_id":"60edd13110225f80f9f3709b","session_id":"6196c7089d2690d2ed3b6a32","condition":"full-information","relevant_dimensions":["antennae","legs"],"bee_group":{"antennae":"B","wings":"X","pattern":"X","legs":"M"},"action":"harvest","summary":"bad-harvest","bonus":0.1000000000000003},{"rt":1499.800000011921,"stimulus":"\n                    <p><b>Action: <em>harvest</em></b></p>\n                    <p>This is the bee that you just saw.</p>\n                    <img src=\"bees-with-color/bee-B2DM.svg\" width=\"200\">\n                    <p><span class=\"redText\">Bad choice, the bee was angry.</span><br><b>You have been stung!</b><br>Your pay has been decreased by $0.10. Your bonus pay is now $0.40.</p>\n            ","response":0,"trial_type":"html-button-response","trial_index":66,"time_elapsed":337119,"internal_node_id":"0.0-4.0-1.29","subject_id":"60f787ec13f475a44c0c53ff","study_id":"60edd13110225f80f9f3709b","session_id":"6196c7089d2690d2ed3b6a32","condition":"full-information","relevant_dimensions":["antennae","legs"],"bee_group":{"antennae":"B","wings":"X","pattern":"X","legs":"M"},"bonus":0.1000000000000003},{"rt":1453.1000000238419,"stimulus":"bees-with-color/bee-B1DM.svg","response":0,"trial_type":"image-button-response","trial_index":67,"time_elapsed":338573,"internal_node_id":"0.0-4.0-0.30","subject_id":"60f787ec13f475a44c0c53ff","study_id":"60edd13110225f80f9f3709b","session_id":"6196c7089d2690d2ed3b6a32","condition":"full-information","relevant_dimensions":["antennae","legs"],"bee_group":{"antennae":"B","wings":"X","pattern":"X","legs":"M"},"action":"harvest","summary":"bad-harvest","bonus":0.1000000000000003},{"rt":725.1000000238419,"stimulus":"\n                    <p><b>Action: <em>harvest</em></b></p>\n                    <p>This is the bee that you just saw.</p>\n                    <img src=\"bees-with-color/bee-B1DM.svg\" width=\"200\">\n                    <p><span class=\"redText\">Bad choice, the bee was angry.</span><br><b>You have been stung!</b><br>Your pay has been decreased by $0.10. Your bonus pay is now $0.30.</p>\n            ","response":0,"trial_type":"html-button-response","trial_index":68,"time_elapsed":339299,"internal_node_id":"0.0-4.0-1.30","subject_id":"60f787ec13f475a44c0c53ff","study_id":"60edd13110225f80f9f3709b","session_id":"6196c7089d2690d2ed3b6a32","condition":"full-information","relevant_dimensions":["antennae","legs"],"bee_group":{"antennae":"B","wings":"X","pattern":"X","legs":"M"},"bonus":0.1000000000000003},{"rt":426.0999999642372,"stimulus":"bees-with-color/bee-B1SF.svg","response":0,"trial_type":"image-button-response","trial_index":69,"time_elapsed":339726,"internal_node_id":"0.0-4.0-0.31","subject_id":"60f787ec13f475a44c0c53ff","study_id":"60edd13110225f80f9f3709b","session_id":"6196c7089d2690d2ed3b6a32","condition":"full-information","relevant_dimensions":["antennae","legs"],"bee_group":{"antennae":"B","wings":"X","pattern":"X","legs":"M"},"action":"harvest","summary":"good-harvest","bonus":0.1000000000000003},{"rt":5120.199999988079,"stimulus":"\n                    <p><b>Action: <em>harvest</em></b></p>\n                    <p>This is the bee that you just saw.</p>\n                    <img src=\"bees-with-color/bee-B1SF.svg\" width=\"200\">\n                    <p><span class=\"greenText\"><b>Successful harvest!</b></span><br>Your pay has increased by $0.02. Your bonus pay is now $0.32.</p>\n            ","response":0,"trial_type":"html-button-response","trial_index":70,"time_elapsed":344847,"internal_node_id":"0.0-4.0-1.31","subject_id":"60f787ec13f475a44c0c53ff","study_id":"60edd13110225f80f9f3709b","session_id":"6196c7089d2690d2ed3b6a32","condition":"full-information","relevant_dimensions":["antennae","legs"],"bee_group":{"antennae":"B","wings":"X","pattern":"X","legs":"M"},"bonus":0.1000000000000003},{"rt":4182.099999964237,"stimulus":"bees-with-color/bee-A2SM.svg","response":0,"trial_type":"image-button-response","trial_index":71,"time_elapsed":349030,"internal_node_id":"0.0-4.0-0.32","subject_id":"60f787ec13f475a44c0c53ff","study_id":"60edd13110225f80f9f3709b","session_id":"6196c7089d2690d2ed3b6a32","condition":"full-information","relevant_dimensions":["antennae","legs"],"bee_group":{"antennae":"B","wings":"X","pattern":"X","legs":"M"},"action":"harvest","summary":"good-harvest","bonus":0.1000000000000003},{"rt":2989.099999964237,"stimulus":"\n                    <p><b>Action: <em>harvest</em></b></p>\n                    <p>This is the bee that you just saw.</p>\n                    <img src=\"bees-with-color/bee-A2SM.svg\" width=\"200\">\n                    <p><span class=\"greenText\"><b>Successful harvest!</b></span><br>Your pay has increased by $0.02. Your bonus pay is now $0.34.</p>\n            ","response":0,"trial_type":"html-button-response","trial_index":72,"time_elapsed":352020,"internal_node_id":"0.0-4.0-1.32","subject_id":"60f787ec13f475a44c0c53ff","study_id":"60edd13110225f80f9f3709b","session_id":"6196c7089d2690d2ed3b6a32","condition":"full-information","relevant_dimensions":["antennae","legs"],"bee_group":{"antennae":"B","wings":"X","pattern":"X","legs":"M"},"bonus":0.1000000000000003},{"rt":2209.800000011921,"stimulus":"bees-with-color/bee-B2SF.svg","response":1,"trial_type":"image-button-response","trial_index":73,"time_elapsed":354231,"internal_node_id":"0.0-4.0-0.33","subject_id":"60f787ec13f475a44c0c53ff","study_id":"60edd13110225f80f9f3709b","session_id":"6196c7089d2690d2ed3b6a32","condition":"full-information","relevant_dimensions":["antennae","legs"],"bee_group":{"antennae":"B","wings":"X","pattern":"X","legs":"M"},"action":"avoid","summary":"bad-avoid","bonus":0.1000000000000003},{"rt":1066,"stimulus":"\n                    <p><b>Action: <em>avoid</em></b></p>\n                    <p>This is the bee that you just saw.</p>\n                    <img src=\"bees-with-color/bee-B2SF.svg\" width=\"200\">\n                    <p><span class=\"redText\">Bad choice,</span> the bee was friendly.<br>Your bonus pay is unchanged, and remains at $0.34.</p>\n            ","response":0,"trial_type":"html-button-response","trial_index":74,"time_elapsed":355298,"internal_node_id":"0.0-4.0-1.33","subject_id":"60f787ec13f475a44c0c53ff","study_id":"60edd13110225f80f9f3709b","session_id":"6196c7089d2690d2ed3b6a32","condition":"full-information","relevant_dimensions":["antennae","legs"],"bee_group":{"antennae":"B","wings":"X","pattern":"X","legs":"M"},"bonus":0.1000000000000003},{"rt":996,"stimulus":"bees-with-color/bee-A2SF.svg","response":1,"trial_type":"image-button-response","trial_index":75,"time_elapsed":356295,"internal_node_id":"0.0-4.0-0.34","subject_id":"60f787ec13f475a44c0c53ff","study_id":"60edd13110225f80f9f3709b","session_id":"6196c7089d2690d2ed3b6a32","condition":"full-information","relevant_dimensions":["antennae","legs"],"bee_group":{"antennae":"B","wings":"X","pattern":"X","legs":"M"},"action":"avoid","summary":"bad-avoid","bonus":0.1000000000000003},{"rt":709,"stimulus":"\n                    <p><b>Action: <em>avoid</em></b></p>\n                    <p>This is the bee that you just saw.</p>\n                    <img src=\"bees-with-color/bee-A2SF.svg\" width=\"200\">\n                    <p><span class=\"redText\">Bad choice,</span> the bee was friendly.<br>Your bonus pay is unchanged, and remains at $0.34.</p>\n            ","response":0,"trial_type":"html-button-response","trial_index":76,"time_elapsed":357005,"internal_node_id":"0.0-4.0-1.34","subject_id":"60f787ec13f475a44c0c53ff","study_id":"60edd13110225f80f9f3709b","session_id":"6196c7089d2690d2ed3b6a32","condition":"full-information","relevant_dimensions":["antennae","legs"],"bee_group":{"antennae":"B","wings":"X","pattern":"X","legs":"M"},"bonus":0.1000000000000003},{"rt":1205,"stimulus":"bees-with-color/bee-B2DM.svg","response":0,"trial_type":"image-button-response","trial_index":77,"time_elapsed":358211,"internal_node_id":"0.0-4.0-0.35","subject_id":"60f787ec13f475a44c0c53ff","study_id":"60edd13110225f80f9f3709b","session_id":"6196c7089d2690d2ed3b6a32","condition":"full-information","relevant_dimensions":["antennae","legs"],"bee_group":{"antennae":"B","wings":"X","pattern":"X","legs":"M"},"action":"harvest","summary":"bad-harvest","bonus":0.1000000000000003},{"rt":2030.1000000238419,"stimulus":"\n                    <p><b>Action: <em>harvest</em></b></p>\n                    <p>This is the bee that you just saw.</p>\n                    <img src=\"bees-with-color/bee-B2DM.svg\" width=\"200\">\n                    <p><span class=\"redText\">Bad choice, the bee was angry.</span><br><b>You have been stung!</b><br>Your pay has been decreased by $0.10. Your bonus pay is now $0.24.</p>\n            ","response":0,"trial_type":"html-button-response","trial_index":78,"time_elapsed":360242,"internal_node_id":"0.0-4.0-1.35","subject_id":"60f787ec13f475a44c0c53ff","study_id":"60edd13110225f80f9f3709b","session_id":"6196c7089d2690d2ed3b6a32","condition":"full-information","relevant_dimensions":["antennae","legs"],"bee_group":{"antennae":"B","wings":"X","pattern":"X","legs":"M"},"bonus":0.1000000000000003},{"rt":1453,"stimulus":"bees-with-color/bee-A2DM.svg","response":1,"trial_type":"image-button-response","trial_index":79,"time_elapsed":361696,"internal_node_id":"0.0-4.0-0.36","subject_id":"60f787ec13f475a44c0c53ff","study_id":"60edd13110225f80f9f3709b","session_id":"6196c7089d2690d2ed3b6a32","condition":"full-information","relevant_dimensions":["antennae","legs"],"bee_group":{"antennae":"B","wings":"X","pattern":"X","legs":"M"},"action":"avoid","summary":"bad-avoid","bonus":0.1000000000000003},{"rt":921,"stimulus":"\n                    <p><b>Action: <em>avoid</em></b></p>\n                    <p>This is the bee that you just saw.</p>\n                    <img src=\"bees-with-color/bee-A2DM.svg\" width=\"200\">\n                    <p><span class=\"redText\">Bad choice,</span> the bee was friendly.<br>Your bonus pay is unchanged, and remains at $0.24.</p>\n            ","response":0,"trial_type":"html-button-response","trial_index":80,"time_elapsed":362618,"internal_node_id":"0.0-4.0-1.36","subject_id":"60f787ec13f475a44c0c53ff","study_id":"60edd13110225f80f9f3709b","session_id":"6196c7089d2690d2ed3b6a32","condition":"full-information","relevant_dimensions":["antennae","legs"],"bee_group":{"antennae":"B","wings":"X","pattern":"X","legs":"M"},"bonus":0.1000000000000003},{"rt":1294.1000000238419,"stimulus":"bees-with-color/bee-B1SM.svg","response":0,"trial_type":"image-button-response","trial_index":81,"time_elapsed":363913,"internal_node_id":"0.0-4.0-0.37","subject_id":"60f787ec13f475a44c0c53ff","study_id":"60edd13110225f80f9f3709b","session_id":"6196c7089d2690d2ed3b6a32","condition":"full-information","relevant_dimensions":["antennae","legs"],"bee_group":{"antennae":"B","wings":"X","pattern":"X","legs":"M"},"action":"harvest","summary":"bad-harvest","bonus":0.1000000000000003},{"rt":771.8000000119209,"stimulus":"\n                    <p><b>Action: <em>harvest</em></b></p>\n                    <p>This is the bee that you just saw.</p>\n                    <img src=\"bees-with-color/bee-B1SM.svg\" width=\"200\">\n                    <p><span class=\"redText\">Bad choice, the bee was angry.</span><br><b>You have been stung!</b><br>Your pay has been decreased by $0.10. Your bonus pay is now $0.14.</p>\n            ","response":0,"trial_type":"html-button-response","trial_index":82,"time_elapsed":364686,"internal_node_id":"0.0-4.0-1.37","subject_id":"60f787ec13f475a44c0c53ff","study_id":"60edd13110225f80f9f3709b","session_id":"6196c7089d2690d2ed3b6a32","condition":"full-information","relevant_dimensions":["antennae","legs"],"bee_group":{"antennae":"B","wings":"X","pattern":"X","legs":"M"},"bonus":0.1000000000000003},{"rt":703.1999999880791,"stimulus":"bees-with-color/bee-A1SM.svg","response":0,"trial_type":"image-button-response","trial_index":83,"time_elapsed":365390,"internal_node_id":"0.0-4.0-0.38","subject_id":"60f787ec13f475a44c0c53ff","study_id":"60edd13110225f80f9f3709b","session_id":"6196c7089d2690d2ed3b6a32","condition":"full-information","relevant_dimensions":["antennae","legs"],"bee_group":{"antennae":"B","wings":"X","pattern":"X","legs":"M"},"action":"harvest","summary":"good-harvest","bonus":0.1000000000000003},{"rt":1815.8999999761581,"stimulus":"\n                    <p><b>Action: <em>harvest</em></b></p>\n                    <p>This is the bee that you just saw.</p>\n                    <img src=\"bees-with-color/bee-A1SM.svg\" width=\"200\">\n                    <p><span class=\"greenText\"><b>Successful harvest!</b></span><br>Your pay has increased by $0.02. Your bonus pay is now $0.16.</p>\n            ","response":0,"trial_type":"html-button-response","trial_index":84,"time_elapsed":367207,"internal_node_id":"0.0-4.0-1.38","subject_id":"60f787ec13f475a44c0c53ff","study_id":"60edd13110225f80f9f3709b","session_id":"6196c7089d2690d2ed3b6a32","condition":"full-information","relevant_dimensions":["antennae","legs"],"bee_group":{"antennae":"B","wings":"X","pattern":"X","legs":"M"},"bonus":0.1000000000000003},{"rt":1006.1000000238419,"stimulus":"bees-with-color/bee-A1SF.svg","response":0,"trial_type":"image-button-response","trial_index":85,"time_elapsed":368214,"internal_node_id":"0.0-4.0-0.39","subject_id":"60f787ec13f475a44c0c53ff","study_id":"60edd13110225f80f9f3709b","session_id":"6196c7089d2690d2ed3b6a32","condition":"full-information","relevant_dimensions":["antennae","legs"],"bee_group":{"antennae":"B","wings":"X","pattern":"X","legs":"M"},"action":"harvest","summary":"good-harvest","bonus":0.1000000000000003},{"rt":1111,"stimulus":"\n                    <p><b>Action: <em>harvest</em></b></p>\n                    <p>This is the bee that you just saw.</p>\n                    <img src=\"bees-with-color/bee-A1SF.svg\" width=\"200\">\n                    <p><span class=\"greenText\"><b>Successful harvest!</b></span><br>Your pay has increased by $0.02. Your bonus pay is now $0.18.</p>\n            ","response":0,"trial_type":"html-button-response","trial_index":86,"time_elapsed":369326,"internal_node_id":"0.0-4.0-1.39","subject_id":"60f787ec13f475a44c0c53ff","study_id":"60edd13110225f80f9f3709b","session_id":"6196c7089d2690d2ed3b6a32","condition":"full-information","relevant_dimensions":["antennae","legs"],"bee_group":{"antennae":"B","wings":"X","pattern":"X","legs":"M"},"bonus":0.1000000000000003},{"rt":1234.1000000238419,"stimulus":"bees-with-color/bee-B1DM.svg","response":0,"trial_type":"image-button-response","trial_index":87,"time_elapsed":370561,"internal_node_id":"0.0-4.0-0.40","subject_id":"60f787ec13f475a44c0c53ff","study_id":"60edd13110225f80f9f3709b","session_id":"6196c7089d2690d2ed3b6a32","condition":"full-information","relevant_dimensions":["antennae","legs"],"bee_group":{"antennae":"B","wings":"X","pattern":"X","legs":"M"},"action":"harvest","summary":"bad-harvest","bonus":0.1000000000000003},{"rt":910,"stimulus":"\n                    <p><b>Action: <em>harvest</em></b></p>\n                    <p>This is the bee that you just saw.</p>\n                    <img src=\"bees-with-color/bee-B1DM.svg\" width=\"200\">\n                    <p><span class=\"redText\">Bad choice, the bee was angry.</span><br><b>You have been stung!</b><br>Your pay has been decreased by $0.10. Your bonus pay is now $0.08.</p>\n            ","response":0,"trial_type":"html-button-response","trial_index":88,"time_elapsed":371472,"internal_node_id":"0.0-4.0-1.40","subject_id":"60f787ec13f475a44c0c53ff","study_id":"60edd13110225f80f9f3709b","session_id":"6196c7089d2690d2ed3b6a32","condition":"full-information","relevant_dimensions":["antennae","legs"],"bee_group":{"antennae":"B","wings":"X","pattern":"X","legs":"M"},"bonus":0.1000000000000003},{"rt":1301.199999988079,"stimulus":"bees-with-color/bee-A1DF.svg","response":1,"trial_type":"image-button-response","trial_index":89,"time_elapsed":372774,"internal_node_id":"0.0-4.0-0.41","subject_id":"60f787ec13f475a44c0c53ff","study_id":"60edd13110225f80f9f3709b","session_id":"6196c7089d2690d2ed3b6a32","condition":"full-information","relevant_dimensions":["antennae","legs"],"bee_group":{"antennae":"B","wings":"X","pattern":"X","legs":"M"},"action":"avoid","summary":"bad-avoid","bonus":0.1000000000000003},{"rt":6016.899999976158,"stimulus":"\n                    <p><b>Action: <em>avoid</em></b></p>\n                    <p>This is the bee that you just saw.</p>\n                    <img src=\"bees-with-color/bee-A1DF.svg\" width=\"200\">\n                    <p><span class=\"redText\">Bad choice,</span> the bee was friendly.<br>Your bonus pay is unchanged, and remains at $0.08.</p>\n            ","response":0,"trial_type":"html-button-response","trial_index":90,"time_elapsed":378792,"internal_node_id":"0.0-4.0-1.41","subject_id":"60f787ec13f475a44c0c53ff","study_id":"60edd13110225f80f9f3709b","session_id":"6196c7089d2690d2ed3b6a32","condition":"full-information","relevant_dimensions":["antennae","legs"],"bee_group":{"antennae":"B","wings":"X","pattern":"X","legs":"M"},"bonus":0.1000000000000003},{"rt":1516,"stimulus":"bees-with-color/bee-B1SF.svg","response":0,"trial_type":"image-button-response","trial_index":91,"time_elapsed":380309,"internal_node_id":"0.0-4.0-0.42","subject_id":"60f787ec13f475a44c0c53ff","study_id":"60edd13110225f80f9f3709b","session_id":"6196c7089d2690d2ed3b6a32","condition":"full-information","relevant_dimensions":["antennae","legs"],"bee_group":{"antennae":"B","wings":"X","pattern":"X","legs":"M"},"action":"harvest","summary":"good-harvest","bonus":0.1000000000000003},{"rt":3824.199999988079,"stimulus":"\n                    <p><b>Action: <em>harvest</em></b></p>\n                    <p>This is the bee that you just saw.</p>\n                    <img src=\"bees-with-color/bee-B1SF.svg\" width=\"200\">\n                    <p><span class=\"greenText\"><b>Successful harvest!</b></span><br>Your pay has increased by $0.02. Your bonus pay is now $0.10.</p>\n            ","response":0,"trial_type":"html-button-response","trial_index":92,"time_elapsed":384134,"internal_node_id":"0.0-4.0-1.42","subject_id":"60f787ec13f475a44c0c53ff","study_id":"60edd13110225f80f9f3709b","session_id":"6196c7089d2690d2ed3b6a32","condition":"full-information","relevant_dimensions":["antennae","legs"],"bee_group":{"antennae":"B","wings":"X","pattern":"X","legs":"M"},"bonus":0.1000000000000003},{"rt":1527.800000011921,"stimulus":"bees-with-color/bee-A2DF.svg","response":0,"trial_type":"image-button-response","trial_index":93,"time_elapsed":385663,"internal_node_id":"0.0-4.0-0.43","subject_id":"60f787ec13f475a44c0c53ff","study_id":"60edd13110225f80f9f3709b","session_id":"6196c7089d2690d2ed3b6a32","condition":"full-information","relevant_dimensions":["antennae","legs"],"bee_group":{"antennae":"B","wings":"X","pattern":"X","legs":"M"},"action":"harvest","summary":"good-harvest","bonus":0.1000000000000003},{"rt":2456.100000023842,"stimulus":"\n                    <p><b>Action: <em>harvest</em></b></p>\n                    <p>This is the bee that you just saw.</p>\n                    <img src=\"bees-with-color/bee-A2DF.svg\" width=\"200\">\n                    <p><span class=\"greenText\"><b>Successful harvest!</b></span><br>Your pay has increased by $0.02. Your bonus pay is now $0.12.</p>\n            ","response":0,"trial_type":"html-button-response","trial_index":94,"time_elapsed":388120,"internal_node_id":"0.0-4.0-1.43","subject_id":"60f787ec13f475a44c0c53ff","study_id":"60edd13110225f80f9f3709b","session_id":"6196c7089d2690d2ed3b6a32","condition":"full-information","relevant_dimensions":["antennae","legs"],"bee_group":{"antennae":"B","wings":"X","pattern":"X","legs":"M"},"bonus":0.1000000000000003},{"rt":2738.099999964237,"stimulus":"bees-with-color/bee-A1DM.svg","response":0,"trial_type":"image-button-response","trial_index":95,"time_elapsed":390859,"internal_node_id":"0.0-4.0-0.44","subject_id":"60f787ec13f475a44c0c53ff","study_id":"60edd13110225f80f9f3709b","session_id":"6196c7089d2690d2ed3b6a32","condition":"full-information","relevant_dimensions":["antennae","legs"],"bee_group":{"antennae":"B","wings":"X","pattern":"X","legs":"M"},"action":"harvest","summary":"good-harvest","bonus":0.1000000000000003},{"rt":8011.900000035763,"stimulus":"\n                    <p><b>Action: <em>harvest</em></b></p>\n                    <p>This is the bee that you just saw.</p>\n                    <img src=\"bees-with-color/bee-A1DM.svg\" width=\"200\">\n                    <p><span class=\"greenText\"><b>Successful harvest!</b></span><br>Your pay has increased by $0.02. Your bonus pay is now $0.14.</p>\n            ","response":0,"trial_type":"html-button-response","trial_index":96,"time_elapsed":398872,"internal_node_id":"0.0-4.0-1.44","subject_id":"60f787ec13f475a44c0c53ff","study_id":"60edd13110225f80f9f3709b","session_id":"6196c7089d2690d2ed3b6a32","condition":"full-information","relevant_dimensions":["antennae","legs"],"bee_group":{"antennae":"B","wings":"X","pattern":"X","legs":"M"},"bonus":0.1000000000000003},{"rt":1137.800000011921,"stimulus":"bees-with-color/bee-B1DF.svg","response":0,"trial_type":"image-button-response","trial_index":97,"time_elapsed":400011,"internal_node_id":"0.0-4.0-0.45","subject_id":"60f787ec13f475a44c0c53ff","study_id":"60edd13110225f80f9f3709b","session_id":"6196c7089d2690d2ed3b6a32","condition":"full-information","relevant_dimensions":["antennae","legs"],"bee_group":{"antennae":"B","wings":"X","pattern":"X","legs":"M"},"action":"harvest","summary":"good-harvest","bonus":0.1000000000000003},{"rt":1037.0999999642372,"stimulus":"\n                    <p><b>Action: <em>harvest</em></b></p>\n                    <p>This is the bee that you just saw.</p>\n                    <img src=\"bees-with-color/bee-B1DF.svg\" width=\"200\">\n                    <p><span class=\"greenText\"><b>Successful harvest!</b></span><br>Your pay has increased by $0.02. Your bonus pay is now $0.16.</p>\n            ","response":0,"trial_type":"html-button-response","trial_index":98,"time_elapsed":401049,"internal_node_id":"0.0-4.0-1.45","subject_id":"60f787ec13f475a44c0c53ff","study_id":"60edd13110225f80f9f3709b","session_id":"6196c7089d2690d2ed3b6a32","condition":"full-information","relevant_dimensions":["antennae","legs"],"bee_group":{"antennae":"B","wings":"X","pattern":"X","legs":"M"},"bonus":0.1000000000000003},{"rt":896.0999999642372,"stimulus":"bees-with-color/bee-B2SM.svg","response":1,"trial_type":"image-button-response","trial_index":99,"time_elapsed":401946,"internal_node_id":"0.0-4.0-0.46","subject_id":"60f787ec13f475a44c0c53ff","study_id":"60edd13110225f80f9f3709b","session_id":"6196c7089d2690d2ed3b6a32","condition":"full-information","relevant_dimensions":["antennae","legs"],"bee_group":{"antennae":"B","wings":"X","pattern":"X","legs":"M"},"action":"avoid","summary":"good-avoid","bonus":0.1000000000000003},{"rt":2479.100000023842,"stimulus":"\n                    <p><b>Action: <em>avoid</em></b></p>\n                    <p>This is the bee that you just saw.</p>\n                    <img src=\"bees-with-color/bee-B2SM.svg\" width=\"200\">\n                    <p><span class=\"greenText\">Good choice!</span>  This bee would have stung you.<br>Your bonus pay is unchanged, and remains at $0.16.</p>\n            ","response":0,"trial_type":"html-button-response","trial_index":100,"time_elapsed":404426,"internal_node_id":"0.0-4.0-1.46","subject_id":"60f787ec13f475a44c0c53ff","study_id":"60edd13110225f80f9f3709b","session_id":"6196c7089d2690d2ed3b6a32","condition":"full-information","relevant_dimensions":["antennae","legs"],"bee_group":{"antennae":"B","wings":"X","pattern":"X","legs":"M"},"bonus":0.1000000000000003},{"rt":855,"stimulus":"bees-with-color/bee-B2DF.svg","response":0,"trial_type":"image-button-response","trial_index":101,"time_elapsed":405282,"internal_node_id":"0.0-4.0-0.47","subject_id":"60f787ec13f475a44c0c53ff","study_id":"60edd13110225f80f9f3709b","session_id":"6196c7089d2690d2ed3b6a32","condition":"full-information","relevant_dimensions":["antennae","legs"],"bee_group":{"antennae":"B","wings":"X","pattern":"X","legs":"M"},"action":"harvest","summary":"good-harvest","bonus":0.1000000000000003},{"rt":1589.9000000357628,"stimulus":"\n                    <p><b>Action: <em>harvest</em></b></p>\n                    <p>This is the bee that you just saw.</p>\n                    <img src=\"bees-with-color/bee-B2DF.svg\" width=\"200\">\n                    <p><span class=\"greenText\"><b>Successful harvest!</b></span><br>Your pay has increased by $0.02. Your bonus pay is now $0.18.</p>\n            ","response":0,"trial_type":"html-button-response","trial_index":102,"time_elapsed":406873,"internal_node_id":"0.0-4.0-1.47","subject_id":"60f787ec13f475a44c0c53ff","study_id":"60edd13110225f80f9f3709b","session_id":"6196c7089d2690d2ed3b6a32","condition":"full-information","relevant_dimensions":["antennae","legs"],"bee_group":{"antennae":"B","wings":"X","pattern":"X","legs":"M"},"bonus":0.1000000000000003},{"rt":1022.3000000119209,"stimulus":"bees-with-color/bee-B1SM.svg","response":1,"trial_type":"image-button-response","trial_index":103,"time_elapsed":407896,"internal_node_id":"0.0-4.0-0.48","subject_id":"60f787ec13f475a44c0c53ff","study_id":"60edd13110225f80f9f3709b","session_id":"6196c7089d2690d2ed3b6a32","condition":"full-information","relevant_dimensions":["antennae","legs"],"bee_group":{"antennae":"B","wings":"X","pattern":"X","legs":"M"},"action":"avoid","summary":"good-avoid","bonus":0.1000000000000003},{"rt":1174.5999999642372,"stimulus":"\n                    <p><b>Action: <em>avoid</em></b></p>\n                    <p>This is the bee that you just saw.</p>\n                    <img src=\"bees-with-color/bee-B1SM.svg\" width=\"200\">\n                    <p><span class=\"greenText\">Good choice!</span>  This bee would have stung you.<br>Your bonus pay is unchanged, and remains at $0.18.</p>\n            ","response":0,"trial_type":"html-button-response","trial_index":104,"time_elapsed":409072,"internal_node_id":"0.0-4.0-1.48","subject_id":"60f787ec13f475a44c0c53ff","study_id":"60edd13110225f80f9f3709b","session_id":"6196c7089d2690d2ed3b6a32","condition":"full-information","relevant_dimensions":["antennae","legs"],"bee_group":{"antennae":"B","wings":"X","pattern":"X","legs":"M"},"bonus":0.1000000000000003},{"rt":1084,"stimulus":"bees-with-color/bee-B2DF.svg","response":0,"trial_type":"image-button-response","trial_index":105,"time_elapsed":410157,"internal_node_id":"0.0-4.0-0.49","subject_id":"60f787ec13f475a44c0c53ff","study_id":"60edd13110225f80f9f3709b","session_id":"6196c7089d2690d2ed3b6a32","condition":"full-information","relevant_dimensions":["antennae","legs"],"bee_group":{"antennae":"B","wings":"X","pattern":"X","legs":"M"},"action":"harvest","summary":"good-harvest","bonus":0.1000000000000003},{"rt":1115.8999999761581,"stimulus":"\n                    <p><b>Action: <em>harvest</em></b></p>\n                    <p>This is the bee that you just saw.</p>\n                    <img src=\"bees-with-color/bee-B2DF.svg\" width=\"200\">\n                    <p><span class=\"greenText\"><b>Successful harvest!</b></span><br>Your pay has increased by $0.02. Your bonus pay is now $0.20.</p>\n            ","response":0,"trial_type":"html-button-response","trial_index":106,"time_elapsed":411274,"internal_node_id":"0.0-4.0-1.49","subject_id":"60f787ec13f475a44c0c53ff","study_id":"60edd13110225f80f9f3709b","session_id":"6196c7089d2690d2ed3b6a32","condition":"full-information","relevant_dimensions":["antennae","legs"],"bee_group":{"antennae":"B","wings":"X","pattern":"X","legs":"M"},"bonus":0.1000000000000003},{"rt":884.1999999880791,"stimulus":"bees-with-color/bee-A1DF.svg","response":1,"trial_type":"image-button-response","trial_index":107,"time_elapsed":412159,"internal_node_id":"0.0-4.0-0.50","subject_id":"60f787ec13f475a44c0c53ff","study_id":"60edd13110225f80f9f3709b","session_id":"6196c7089d2690d2ed3b6a32","condition":"full-information","relevant_dimensions":["antennae","legs"],"bee_group":{"antennae":"B","wings":"X","pattern":"X","legs":"M"},"action":"avoid","summary":"bad-avoid","bonus":0.1000000000000003},{"rt":1258.199999988079,"stimulus":"\n                    <p><b>Action: <em>avoid</em></b></p>\n                    <p>This is the bee that you just saw.</p>\n                    <img src=\"bees-with-color/bee-A1DF.svg\" width=\"200\">\n                    <p><span class=\"redText\">Bad choice,</span> the bee was friendly.<br>Your bonus pay is unchanged, and remains at $0.20.</p>\n            ","response":0,"trial_type":"html-button-response","trial_index":108,"time_elapsed":413419,"internal_node_id":"0.0-4.0-1.50","subject_id":"60f787ec13f475a44c0c53ff","study_id":"60edd13110225f80f9f3709b","session_id":"6196c7089d2690d2ed3b6a32","condition":"full-information","relevant_dimensions":["antennae","legs"],"bee_group":{"antennae":"B","wings":"X","pattern":"X","legs":"M"},"bonus":0.1000000000000003},{"rt":1365.699999988079,"stimulus":"bees-with-color/bee-A2SM.svg","response":1,"trial_type":"image-button-response","trial_index":109,"time_elapsed":414785,"internal_node_id":"0.0-4.0-0.51","subject_id":"60f787ec13f475a44c0c53ff","study_id":"60edd13110225f80f9f3709b","session_id":"6196c7089d2690d2ed3b6a32","condition":"full-information","relevant_dimensions":["antennae","legs"],"bee_group":{"antennae":"B","wings":"X","pattern":"X","legs":"M"},"action":"avoid","summary":"bad-avoid","bonus":0.1000000000000003},{"rt":833.8999999761581,"stimulus":"\n                    <p><b>Action: <em>avoid</em></b></p>\n                    <p>This is the bee that you just saw.</p>\n                    <img src=\"bees-with-color/bee-A2SM.svg\" width=\"200\">\n                    <p><span class=\"redText\">Bad choice,</span> the bee was friendly.<br>Your bonus pay is unchanged, and remains at $0.20.</p>\n            ","response":0,"trial_type":"html-button-response","trial_index":110,"time_elapsed":415620,"internal_node_id":"0.0-4.0-1.51","subject_id":"60f787ec13f475a44c0c53ff","study_id":"60edd13110225f80f9f3709b","session_id":"6196c7089d2690d2ed3b6a32","condition":"full-information","relevant_dimensions":["antennae","legs"],"bee_group":{"antennae":"B","wings":"X","pattern":"X","legs":"M"},"bonus":0.1000000000000003},{"rt":768.3000000119209,"stimulus":"bees-with-color/bee-B1DM.svg","response":0,"trial_type":"image-button-response","trial_index":111,"time_elapsed":416389,"internal_node_id":"0.0-4.0-0.52","subject_id":"60f787ec13f475a44c0c53ff","study_id":"60edd13110225f80f9f3709b","session_id":"6196c7089d2690d2ed3b6a32","condition":"full-information","relevant_dimensions":["antennae","legs"],"bee_group":{"antennae":"B","wings":"X","pattern":"X","legs":"M"},"action":"harvest","summary":"bad-harvest","bonus":0.1000000000000003},{"rt":863.9000000357628,"stimulus":"\n                    <p><b>Action: <em>harvest</em></b></p>\n                    <p>This is the bee that you just saw.</p>\n                    <img src=\"bees-with-color/bee-B1DM.svg\" width=\"200\">\n                    <p><span class=\"redText\">Bad choice, the bee was angry.</span><br><b>You have been stung!</b><br>Your pay has been decreased by $0.10. Your bonus pay is now $0.10.</p>\n            ","response":0,"trial_type":"html-button-response","trial_index":112,"time_elapsed":417254,"internal_node_id":"0.0-4.0-1.52","subject_id":"60f787ec13f475a44c0c53ff","study_id":"60edd13110225f80f9f3709b","session_id":"6196c7089d2690d2ed3b6a32","condition":"full-information","relevant_dimensions":["antennae","legs"],"bee_group":{"antennae":"B","wings":"X","pattern":"X","legs":"M"},"bonus":0.1000000000000003},{"rt":1258.300000011921,"stimulus":"bees-with-color/bee-B2SF.svg","response":0,"trial_type":"image-button-response","trial_index":113,"time_elapsed":418513,"internal_node_id":"0.0-4.0-0.53","subject_id":"60f787ec13f475a44c0c53ff","study_id":"60edd13110225f80f9f3709b","session_id":"6196c7089d2690d2ed3b6a32","condition":"full-information","relevant_dimensions":["antennae","legs"],"bee_group":{"antennae":"B","wings":"X","pattern":"X","legs":"M"},"action":"harvest","summary":"good-harvest","bonus":0.1000000000000003},{"rt":944.3999999761581,"stimulus":"\n                    <p><b>Action: <em>harvest</em></b></p>\n                    <p>This is the bee that you just saw.</p>\n                    <img src=\"bees-with-color/bee-B2SF.svg\" width=\"200\">\n                    <p><span class=\"greenText\"><b>Successful harvest!</b></span><br>Your pay has increased by $0.02. Your bonus pay is now $0.12.</p>\n            ","response":0,"trial_type":"html-button-response","trial_index":114,"time_elapsed":419458,"internal_node_id":"0.0-4.0-1.53","subject_id":"60f787ec13f475a44c0c53ff","study_id":"60edd13110225f80f9f3709b","session_id":"6196c7089d2690d2ed3b6a32","condition":"full-information","relevant_dimensions":["antennae","legs"],"bee_group":{"antennae":"B","wings":"X","pattern":"X","legs":"M"},"bonus":0.1000000000000003},{"rt":711.6999999880791,"stimulus":"bees-with-color/bee-B1DF.svg","response":0,"trial_type":"image-button-response","trial_index":115,"time_elapsed":420171,"internal_node_id":"0.0-4.0-0.54","subject_id":"60f787ec13f475a44c0c53ff","study_id":"60edd13110225f80f9f3709b","session_id":"6196c7089d2690d2ed3b6a32","condition":"full-information","relevant_dimensions":["antennae","legs"],"bee_group":{"antennae":"B","wings":"X","pattern":"X","legs":"M"},"action":"harvest","summary":"good-harvest","bonus":0.1000000000000003},{"rt":4791,"stimulus":"\n                    <p><b>Action: <em>harvest</em></b></p>\n                    <p>This is the bee that you just saw.</p>\n                    <img src=\"bees-with-color/bee-B1DF.svg\" width=\"200\">\n                    <p><span class=\"greenText\"><b>Successful harvest!</b></span><br>Your pay has increased by $0.02. Your bonus pay is now $0.14.</p>\n            ","response":0,"trial_type":"html-button-response","trial_index":116,"time_elapsed":424963,"internal_node_id":"0.0-4.0-1.54","subject_id":"60f787ec13f475a44c0c53ff","study_id":"60edd13110225f80f9f3709b","session_id":"6196c7089d2690d2ed3b6a32","condition":"full-information","relevant_dimensions":["antennae","legs"],"bee_group":{"antennae":"B","wings":"X","pattern":"X","legs":"M"},"bonus":0.1000000000000003},{"rt":1684,"stimulus":"bees-with-color/bee-B1SF.svg","response":0,"trial_type":"image-button-response","trial_index":117,"time_elapsed":426648,"internal_node_id":"0.0-4.0-0.55","subject_id":"60f787ec13f475a44c0c53ff","study_id":"60edd13110225f80f9f3709b","session_id":"6196c7089d2690d2ed3b6a32","condition":"full-information","relevant_dimensions":["antennae","legs"],"bee_group":{"antennae":"B","wings":"X","pattern":"X","legs":"M"},"action":"harvest","summary":"good-harvest","bonus":0.1000000000000003},{"rt":1868,"stimulus":"\n                    <p><b>Action: <em>harvest</em></b></p>\n                    <p>This is the bee that you just saw.</p>\n                    <img src=\"bees-with-color/bee-B1SF.svg\" width=\"200\">\n                    <p><span class=\"greenText\"><b>Successful harvest!</b></span><br>Your pay has increased by $0.02. Your bonus pay is now $0.16.</p>\n            ","response":0,"trial_type":"html-button-response","trial_index":118,"time_elapsed":428517,"internal_node_id":"0.0-4.0-1.55","subject_id":"60f787ec13f475a44c0c53ff","study_id":"60edd13110225f80f9f3709b","session_id":"6196c7089d2690d2ed3b6a32","condition":"full-information","relevant_dimensions":["antennae","legs"],"bee_group":{"antennae":"B","wings":"X","pattern":"X","legs":"M"},"bonus":0.1000000000000003},{"rt":1002,"stimulus":"bees-with-color/bee-A1SM.svg","response":1,"trial_type":"image-button-response","trial_index":119,"time_elapsed":429520,"internal_node_id":"0.0-4.0-0.56","subject_id":"60f787ec13f475a44c0c53ff","study_id":"60edd13110225f80f9f3709b","session_id":"6196c7089d2690d2ed3b6a32","condition":"full-information","relevant_dimensions":["antennae","legs"],"bee_group":{"antennae":"B","wings":"X","pattern":"X","legs":"M"},"action":"avoid","summary":"bad-avoid","bonus":0.1000000000000003},{"rt":3479.199999988079,"stimulus":"\n                    <p><b>Action: <em>avoid</em></b></p>\n                    <p>This is the bee that you just saw.</p>\n                    <img src=\"bees-with-color/bee-A1SM.svg\" width=\"200\">\n                    <p><span class=\"redText\">Bad choice,</span> the bee was friendly.<br>Your bonus pay is unchanged, and remains at $0.16.</p>\n            ","response":0,"trial_type":"html-button-response","trial_index":120,"time_elapsed":433000,"internal_node_id":"0.0-4.0-1.56","subject_id":"60f787ec13f475a44c0c53ff","study_id":"60edd13110225f80f9f3709b","session_id":"6196c7089d2690d2ed3b6a32","condition":"full-information","relevant_dimensions":["antennae","legs"],"bee_group":{"antennae":"B","wings":"X","pattern":"X","legs":"M"},"bonus":0.1000000000000003},{"rt":970.8000000119209,"stimulus":"bees-with-color/bee-B2DM.svg","response":1,"trial_type":"image-button-response","trial_index":121,"time_elapsed":433972,"internal_node_id":"0.0-4.0-0.57","subject_id":"60f787ec13f475a44c0c53ff","study_id":"60edd13110225f80f9f3709b","session_id":"6196c7089d2690d2ed3b6a32","condition":"full-information","relevant_dimensions":["antennae","legs"],"bee_group":{"antennae":"B","wings":"X","pattern":"X","legs":"M"},"action":"avoid","summary":"good-avoid","bonus":0.1000000000000003},{"rt":1278.800000011921,"stimulus":"\n                    <p><b>Action: <em>avoid</em></b></p>\n                    <p>This is the bee that you just saw.</p>\n                    <img src=\"bees-with-color/bee-B2DM.svg\" width=\"200\">\n                    <p><span class=\"greenText\">Good choice!</span>  This bee would have stung you.<br>Your bonus pay is unchanged, and remains at $0.16.</p>\n            ","response":0,"trial_type":"html-button-response","trial_index":122,"time_elapsed":435252,"internal_node_id":"0.0-4.0-1.57","subject_id":"60f787ec13f475a44c0c53ff","study_id":"60edd13110225f80f9f3709b","session_id":"6196c7089d2690d2ed3b6a32","condition":"full-information","relevant_dimensions":["antennae","legs"],"bee_group":{"antennae":"B","wings":"X","pattern":"X","legs":"M"},"bonus":0.1000000000000003},{"rt":3025.199999988079,"stimulus":"bees-with-color/bee-A2DF.svg","response":0,"trial_type":"image-button-response","trial_index":123,"time_elapsed":438278,"internal_node_id":"0.0-4.0-0.58","subject_id":"60f787ec13f475a44c0c53ff","study_id":"60edd13110225f80f9f3709b","session_id":"6196c7089d2690d2ed3b6a32","condition":"full-information","relevant_dimensions":["antennae","legs"],"bee_group":{"antennae":"B","wings":"X","pattern":"X","legs":"M"},"action":"harvest","summary":"good-harvest","bonus":0.1000000000000003},{"rt":1259.1000000238419,"stimulus":"\n                    <p><b>Action: <em>harvest</em></b></p>\n                    <p>This is the bee that you just saw.</p>\n                    <img src=\"bees-with-color/bee-A2DF.svg\" width=\"200\">\n                    <p><span class=\"greenText\"><b>Successful harvest!</b></span><br>Your pay has increased by $0.02. Your bonus pay is now $0.18.</p>\n            ","response":0,"trial_type":"html-button-response","trial_index":124,"time_elapsed":439538,"internal_node_id":"0.0-4.0-1.58","subject_id":"60f787ec13f475a44c0c53ff","study_id":"60edd13110225f80f9f3709b","session_id":"6196c7089d2690d2ed3b6a32","condition":"full-information","relevant_dimensions":["antennae","legs"],"bee_group":{"antennae":"B","wings":"X","pattern":"X","legs":"M"},"bonus":0.1000000000000003},{"rt":1253.800000011921,"stimulus":"bees-with-color/bee-A2DM.svg","response":1,"trial_type":"image-button-response","trial_index":125,"time_elapsed":440793,"internal_node_id":"0.0-4.0-0.59","subject_id":"60f787ec13f475a44c0c53ff","study_id":"60edd13110225f80f9f3709b","session_id":"6196c7089d2690d2ed3b6a32","condition":"full-information","relevant_dimensions":["antennae","legs"],"bee_group":{"antennae":"B","wings":"X","pattern":"X","legs":"M"},"action":"avoid","summary":"bad-avoid","bonus":0.1000000000000003},{"rt":788.0999999642372,"stimulus":"\n                    <p><b>Action: <em>avoid</em></b></p>\n                    <p>This is the bee that you just saw.</p>\n                    <img src=\"bees-with-color/bee-A2DM.svg\" width=\"200\">\n                    <p><span class=\"redText\">Bad choice,</span> the bee was friendly.<br>Your bonus pay is unchanged, and remains at $0.18.</p>\n            ","response":0,"trial_type":"html-button-response","trial_index":126,"time_elapsed":441582,"internal_node_id":"0.0-4.0-1.59","subject_id":"60f787ec13f475a44c0c53ff","study_id":"60edd13110225f80f9f3709b","session_id":"6196c7089d2690d2ed3b6a32","condition":"full-information","relevant_dimensions":["antennae","legs"],"bee_group":{"antennae":"B","wings":"X","pattern":"X","legs":"M"},"bonus":0.1000000000000003},{"rt":865.6000000238419,"stimulus":"bees-with-color/bee-B2SM.svg","response":0,"trial_type":"image-button-response","trial_index":127,"time_elapsed":442449,"internal_node_id":"0.0-4.0-0.60","subject_id":"60f787ec13f475a44c0c53ff","study_id":"60edd13110225f80f9f3709b","session_id":"6196c7089d2690d2ed3b6a32","condition":"full-information","relevant_dimensions":["antennae","legs"],"bee_group":{"antennae":"B","wings":"X","pattern":"X","legs":"M"},"action":"harvest","summary":"bad-harvest","bonus":0.1000000000000003},{"rt":892.1000000238419,"stimulus":"\n                    <p><b>Action: <em>harvest</em></b></p>\n                    <p>This is the bee that you just saw.</p>\n                    <img src=\"bees-with-color/bee-B2SM.svg\" width=\"200\">\n                    <p><span class=\"redText\">Bad choice, the bee was angry.</span><br><b>You have been stung!</b><br>Your pay has been decreased by $0.10. Your bonus pay is now $0.08.</p>\n            ","response":0,"trial_type":"html-button-response","trial_index":128,"time_elapsed":443343,"internal_node_id":"0.0-4.0-1.60","subject_id":"60f787ec13f475a44c0c53ff","study_id":"60edd13110225f80f9f3709b","session_id":"6196c7089d2690d2ed3b6a32","condition":"full-information","relevant_dimensions":["antennae","legs"],"bee_group":{"antennae":"B","wings":"X","pattern":"X","legs":"M"},"bonus":0.1000000000000003},{"rt":1923.3999999761581,"stimulus":"bees-with-color/bee-A2SF.svg","response":1,"trial_type":"image-button-response","trial_index":129,"time_elapsed":445267,"internal_node_id":"0.0-4.0-0.61","subject_id":"60f787ec13f475a44c0c53ff","study_id":"60edd13110225f80f9f3709b","session_id":"6196c7089d2690d2ed3b6a32","condition":"full-information","relevant_dimensions":["antennae","legs"],"bee_group":{"antennae":"B","wings":"X","pattern":"X","legs":"M"},"action":"avoid","summary":"bad-avoid","bonus":0.1000000000000003},{"rt":1666.199999988079,"stimulus":"\n                    <p><b>Action: <em>avoid</em></b></p>\n                    <p>This is the bee that you just saw.</p>\n                    <img src=\"bees-with-color/bee-A2SF.svg\" width=\"200\">\n                    <p><span class=\"redText\">Bad choice,</span> the bee was friendly.<br>Your bonus pay is unchanged, and remains at $0.08.</p>\n            ","response":0,"trial_type":"html-button-response","trial_index":130,"time_elapsed":446934,"internal_node_id":"0.0-4.0-1.61","subject_id":"60f787ec13f475a44c0c53ff","study_id":"60edd13110225f80f9f3709b","session_id":"6196c7089d2690d2ed3b6a32","condition":"full-information","relevant_dimensions":["antennae","legs"],"bee_group":{"antennae":"B","wings":"X","pattern":"X","legs":"M"},"bonus":0.1000000000000003},{"rt":1154.699999988079,"stimulus":"bees-with-color/bee-A1SF.svg","response":0,"trial_type":"image-button-response","trial_index":131,"time_elapsed":448090,"internal_node_id":"0.0-4.0-0.62","subject_id":"60f787ec13f475a44c0c53ff","study_id":"60edd13110225f80f9f3709b","session_id":"6196c7089d2690d2ed3b6a32","condition":"full-information","relevant_dimensions":["antennae","legs"],"bee_group":{"antennae":"B","wings":"X","pattern":"X","legs":"M"},"action":"harvest","summary":"good-harvest","bonus":0.1000000000000003},{"rt":641.1999999880791,"stimulus":"\n                    <p><b>Action: <em>harvest</em></b></p>\n                    <p>This is the bee that you just saw.</p>\n                    <img src=\"bees-with-color/bee-A1SF.svg\" width=\"200\">\n                    <p><span class=\"greenText\"><b>Successful harvest!</b></span><br>Your pay has increased by $0.02. Your bonus pay is now $0.10.</p>\n            ","response":0,"trial_type":"html-button-response","trial_index":132,"time_elapsed":448732,"internal_node_id":"0.0-4.0-1.62","subject_id":"60f787ec13f475a44c0c53ff","study_id":"60edd13110225f80f9f3709b","session_id":"6196c7089d2690d2ed3b6a32","condition":"full-information","relevant_dimensions":["antennae","legs"],"bee_group":{"antennae":"B","wings":"X","pattern":"X","legs":"M"},"bonus":0.1000000000000003},{"rt":771.6000000238419,"stimulus":"bees-with-color/bee-A1DM.svg","response":0,"trial_type":"image-button-response","trial_index":133,"time_elapsed":449505,"internal_node_id":"0.0-4.0-0.63","subject_id":"60f787ec13f475a44c0c53ff","study_id":"60edd13110225f80f9f3709b","session_id":"6196c7089d2690d2ed3b6a32","condition":"full-information","relevant_dimensions":["antennae","legs"],"bee_group":{"antennae":"B","wings":"X","pattern":"X","legs":"M"},"action":"harvest","summary":"good-harvest","bonus":0.1000000000000003},{"rt":695.5,"stimulus":"\n                    <p><b>Action: <em>harvest</em></b></p>\n                    <p>This is the bee that you just saw.</p>\n                    <img src=\"bees-with-color/bee-A1DM.svg\" width=\"200\">\n                    <p><span class=\"greenText\"><b>Successful harvest!</b></span><br>Your pay has increased by $0.02. Your bonus pay is now $0.12.</p>\n            ","response":0,"trial_type":"html-button-response","trial_index":134,"time_elapsed":450201,"internal_node_id":"0.0-4.0-1.63","subject_id":"60f787ec13f475a44c0c53ff","study_id":"60edd13110225f80f9f3709b","session_id":"6196c7089d2690d2ed3b6a32","condition":"full-information","relevant_dimensions":["antennae","legs"],"bee_group":{"antennae":"B","wings":"X","pattern":"X","legs":"M"},"bonus":0.1000000000000003},{"rt":5956.600000023842,"stimulus":"You have completed the first part of this experiment.<br><br>You will now begin a shorter second part, in which you will receive no feedback.<br>The same rules regarding bonus pay apply.<br><br>Press any key to begin.","response":"enter","trial_type":"html-keyboard-response","trial_index":135,"time_elapsed":456159,"internal_node_id":"0.0-5.0","subject_id":"60f787ec13f475a44c0c53ff","study_id":"60edd13110225f80f9f3709b","session_id":"6196c7089d2690d2ed3b6a32","condition":"full-information","relevant_dimensions":["antennae","legs"],"bee_group":{"antennae":"B","wings":"X","pattern":"X","legs":"M"},"bonus":0.1000000000000003},{"rt":2495.100000023842,"stimulus":"bees-with-color/bee-B2DF.svg","response":0,"trial_type":"image-button-response","trial_index":136,"time_elapsed":458660,"internal_node_id":"0.0-6.0-0.0","subject_id":"60f787ec13f475a44c0c53ff","study_id":"60edd13110225f80f9f3709b","session_id":"6196c7089d2690d2ed3b6a32","condition":"full-information","relevant_dimensions":["antennae","legs"],"bee_group":{"antennae":"B","wings":"X","pattern":"X","legs":"M"},"bonus":0.1000000000000003},{"rt":1353.699999988079,"stimulus":"bees-with-color/bee-A2SF.svg","response":0,"trial_type":"image-button-response","trial_index":137,"time_elapsed":460015,"internal_node_id":"0.0-6.0-0.1","subject_id":"60f787ec13f475a44c0c53ff","study_id":"60edd13110225f80f9f3709b","session_id":"6196c7089d2690d2ed3b6a32","condition":"full-information","relevant_dimensions":["antennae","legs"],"bee_group":{"antennae":"B","wings":"X","pattern":"X","legs":"M"},"bonus":0.1000000000000003},{"rt":1173.6000000238419,"stimulus":"bees-with-color/bee-B1SM.svg","response":1,"trial_type":"image-button-response","trial_index":138,"time_elapsed":461190,"internal_node_id":"0.0-6.0-0.2","subject_id":"60f787ec13f475a44c0c53ff","study_id":"60edd13110225f80f9f3709b","session_id":"6196c7089d2690d2ed3b6a32","condition":"full-information","relevant_dimensions":["antennae","legs"],"bee_group":{"antennae":"B","wings":"X","pattern":"X","legs":"M"},"bonus":0.1000000000000003},{"rt":1568.5999999642372,"stimulus":"bees-with-color/bee-A2DF.svg","response":1,"trial_type":"image-button-response","trial_index":139,"time_elapsed":462760,"internal_node_id":"0.0-6.0-0.3","subject_id":"60f787ec13f475a44c0c53ff","study_id":"60edd13110225f80f9f3709b","session_id":"6196c7089d2690d2ed3b6a32","condition":"full-information","relevant_dimensions":["antennae","legs"],"bee_group":{"antennae":"B","wings":"X","pattern":"X","legs":"M"},"bonus":0.1000000000000003},{"rt":1214.300000011921,"stimulus":"bees-with-color/bee-B2DM.svg","response":1,"trial_type":"image-button-response","trial_index":140,"time_elapsed":463976,"internal_node_id":"0.0-6.0-0.4","subject_id":"60f787ec13f475a44c0c53ff","study_id":"60edd13110225f80f9f3709b","session_id":"6196c7089d2690d2ed3b6a32","condition":"full-information","relevant_dimensions":["antennae","legs"],"bee_group":{"antennae":"B","wings":"X","pattern":"X","legs":"M"},"bonus":0.1000000000000003},{"rt":1032.5999999642372,"stimulus":"bees-with-color/bee-B2SF.svg","response":1,"trial_type":"image-button-response","trial_index":141,"time_elapsed":465010,"internal_node_id":"0.0-6.0-0.5","subject_id":"60f787ec13f475a44c0c53ff","study_id":"60edd13110225f80f9f3709b","session_id":"6196c7089d2690d2ed3b6a32","condition":"full-information","relevant_dimensions":["antennae","legs"],"bee_group":{"antennae":"B","wings":"X","pattern":"X","legs":"M"},"bonus":0.1000000000000003},{"rt":528.6999999880791,"stimulus":"bees-with-color/bee-A1SF.svg","response":0,"trial_type":"image-button-response","trial_index":142,"time_elapsed":465540,"internal_node_id":"0.0-6.0-0.6","subject_id":"60f787ec13f475a44c0c53ff","study_id":"60edd13110225f80f9f3709b","session_id":"6196c7089d2690d2ed3b6a32","condition":"full-information","relevant_dimensions":["antennae","legs"],"bee_group":{"antennae":"B","wings":"X","pattern":"X","legs":"M"},"bonus":0.1000000000000003},{"rt":512.6999999880791,"stimulus":"bees-with-color/bee-A1DM.svg","response":0,"trial_type":"image-button-response","trial_index":143,"time_elapsed":466054,"internal_node_id":"0.0-6.0-0.7","subject_id":"60f787ec13f475a44c0c53ff","study_id":"60edd13110225f80f9f3709b","session_id":"6196c7089d2690d2ed3b6a32","condition":"full-information","relevant_dimensions":["antennae","legs"],"bee_group":{"antennae":"B","wings":"X","pattern":"X","legs":"M"},"bonus":0.1000000000000003},{"rt":463.5,"stimulus":"bees-with-color/bee-A1DF.svg","response":0,"trial_type":"image-button-response","trial_index":144,"time_elapsed":466519,"internal_node_id":"0.0-6.0-0.8","subject_id":"60f787ec13f475a44c0c53ff","study_id":"60edd13110225f80f9f3709b","session_id":"6196c7089d2690d2ed3b6a32","condition":"full-information","relevant_dimensions":["antennae","legs"],"bee_group":{"antennae":"B","wings":"X","pattern":"X","legs":"M"},"bonus":0.1000000000000003},{"rt":908.8000000119209,"stimulus":"bees-with-color/bee-A2SM.svg","response":1,"trial_type":"image-button-response","trial_index":145,"time_elapsed":467429,"internal_node_id":"0.0-6.0-0.9","subject_id":"60f787ec13f475a44c0c53ff","study_id":"60edd13110225f80f9f3709b","session_id":"6196c7089d2690d2ed3b6a32","condition":"full-information","relevant_dimensions":["antennae","legs"],"bee_group":{"antennae":"B","wings":"X","pattern":"X","legs":"M"},"bonus":0.1000000000000003},{"rt":1326.199999988079,"stimulus":"bees-with-color/bee-A2DM.svg","response":1,"trial_type":"image-button-response","trial_index":146,"time_elapsed":468757,"internal_node_id":"0.0-6.0-0.10","subject_id":"60f787ec13f475a44c0c53ff","study_id":"60edd13110225f80f9f3709b","session_id":"6196c7089d2690d2ed3b6a32","condition":"full-information","relevant_dimensions":["antennae","legs"],"bee_group":{"antennae":"B","wings":"X","pattern":"X","legs":"M"},"bonus":0.1000000000000003},{"rt":719.6000000238419,"stimulus":"bees-with-color/bee-A1SM.svg","response":0,"trial_type":"image-button-response","trial_index":147,"time_elapsed":469478,"internal_node_id":"0.0-6.0-0.11","subject_id":"60f787ec13f475a44c0c53ff","study_id":"60edd13110225f80f9f3709b","session_id":"6196c7089d2690d2ed3b6a32","condition":"full-information","relevant_dimensions":["antennae","legs"],"bee_group":{"antennae":"B","wings":"X","pattern":"X","legs":"M"},"bonus":0.1000000000000003},{"rt":686.7000000476837,"stimulus":"bees-with-color/bee-B2SM.svg","response":1,"trial_type":"image-button-response","trial_index":148,"time_elapsed":470166,"internal_node_id":"0.0-6.0-0.12","subject_id":"60f787ec13f475a44c0c53ff","study_id":"60edd13110225f80f9f3709b","session_id":"6196c7089d2690d2ed3b6a32","condition":"full-information","relevant_dimensions":["antennae","legs"],"bee_group":{"antennae":"B","wings":"X","pattern":"X","legs":"M"},"bonus":0.1000000000000003},{"rt":500.89999997615814,"stimulus":"bees-with-color/bee-B1SF.svg","response":0,"trial_type":"image-button-response","trial_index":149,"time_elapsed":470668,"internal_node_id":"0.0-6.0-0.13","subject_id":"60f787ec13f475a44c0c53ff","study_id":"60edd13110225f80f9f3709b","session_id":"6196c7089d2690d2ed3b6a32","condition":"full-information","relevant_dimensions":["antennae","legs"],"bee_group":{"antennae":"B","wings":"X","pattern":"X","legs":"M"},"bonus":0.1000000000000003},{"rt":496.30000001192093,"stimulus":"bees-with-color/bee-B1DF.svg","response":0,"trial_type":"image-button-response","trial_index":150,"time_elapsed":471166,"internal_node_id":"0.0-6.0-0.14","subject_id":"60f787ec13f475a44c0c53ff","study_id":"60edd13110225f80f9f3709b","session_id":"6196c7089d2690d2ed3b6a32","condition":"full-information","relevant_dimensions":["antennae","legs"],"bee_group":{"antennae":"B","wings":"X","pattern":"X","legs":"M"},"bonus":0.1000000000000003},{"rt":561.8000000119209,"stimulus":"bees-with-color/bee-B1DM.svg","response":0,"trial_type":"image-button-response","trial_index":151,"time_elapsed":471729,"internal_node_id":"0.0-6.0-0.15","subject_id":"60f787ec13f475a44c0c53ff","study_id":"60edd13110225f80f9f3709b","session_id":"6196c7089d2690d2ed3b6a32","condition":"full-information","relevant_dimensions":["antennae","legs"],"bee_group":{"antennae":"B","wings":"X","pattern":"X","legs":"M"},"bonus":0.1000000000000003},{"rt":465.80000001192093,"stimulus":"bees-with-color/bee-A1SF.svg","response":0,"trial_type":"image-button-response","trial_index":152,"time_elapsed":472196,"internal_node_id":"0.0-6.0-0.16","subject_id":"60f787ec13f475a44c0c53ff","study_id":"60edd13110225f80f9f3709b","session_id":"6196c7089d2690d2ed3b6a32","condition":"full-information","relevant_dimensions":["antennae","legs"],"bee_group":{"antennae":"B","wings":"X","pattern":"X","legs":"M"},"bonus":0.1000000000000003},{"rt":1199,"stimulus":"bees-with-color/bee-A2DF.svg","response":1,"trial_type":"image-button-response","trial_index":153,"time_elapsed":473396,"internal_node_id":"0.0-6.0-0.17","subject_id":"60f787ec13f475a44c0c53ff","study_id":"60edd13110225f80f9f3709b","session_id":"6196c7089d2690d2ed3b6a32","condition":"full-information","relevant_dimensions":["antennae","legs"],"bee_group":{"antennae":"B","wings":"X","pattern":"X","legs":"M"},"bonus":0.1000000000000003},{"rt":980.1999999880791,"stimulus":"bees-with-color/bee-B1DM.svg","response":0,"trial_type":"image-button-response","trial_index":154,"time_elapsed":474377,"internal_node_id":"0.0-6.0-0.18","subject_id":"60f787ec13f475a44c0c53ff","study_id":"60edd13110225f80f9f3709b","session_id":"6196c7089d2690d2ed3b6a32","condition":"full-information","relevant_dimensions":["antennae","legs"],"bee_group":{"antennae":"B","wings":"X","pattern":"X","legs":"M"},"bonus":0.1000000000000003},{"rt":612.5,"stimulus":"bees-with-color/bee-B2SF.svg","response":1,"trial_type":"image-button-response","trial_index":155,"time_elapsed":474991,"internal_node_id":"0.0-6.0-0.19","subject_id":"60f787ec13f475a44c0c53ff","study_id":"60edd13110225f80f9f3709b","session_id":"6196c7089d2690d2ed3b6a32","condition":"full-information","relevant_dimensions":["antennae","legs"],"bee_group":{"antennae":"B","wings":"X","pattern":"X","legs":"M"},"bonus":0.1000000000000003},{"rt":457.80000001192093,"stimulus":"bees-with-color/bee-B1DF.svg","response":0,"trial_type":"image-button-response","trial_index":156,"time_elapsed":475450,"internal_node_id":"0.0-6.0-0.20","subject_id":"60f787ec13f475a44c0c53ff","study_id":"60edd13110225f80f9f3709b","session_id":"6196c7089d2690d2ed3b6a32","condition":"full-information","relevant_dimensions":["antennae","legs"],"bee_group":{"antennae":"B","wings":"X","pattern":"X","legs":"M"},"bonus":0.1000000000000003},{"rt":595,"stimulus":"bees-with-color/bee-A2SF.svg","response":1,"trial_type":"image-button-response","trial_index":157,"time_elapsed":476046,"internal_node_id":"0.0-6.0-0.21","subject_id":"60f787ec13f475a44c0c53ff","study_id":"60edd13110225f80f9f3709b","session_id":"6196c7089d2690d2ed3b6a32","condition":"