[{"success":true,"trial_type":"fullscreen","trial_index":0,"time_elapsed":44575,"internal_node_id":"0.0-0.0","subject_id":"5c7d8138896a0b00011c2f5d","study_id":"60edd13110225f80f9f3709b","session_id":"6196c4a300ae004bea2de010","condition":"contingent","relevant_dimensions":["antennae","pattern"],"bee_group":{"antennae":"B","wings":"X","pattern":"S","legs":"X"},"bonus":0.7600000000000012},{"success":true,"timeout":false,"failed_images":[],"failed_audio":[],"failed_video":[],"trial_type":"preload","trial_index":1,"time_elapsed":47844,"internal_node_id":"0.0-1.0","subject_id":"5c7d8138896a0b00011c2f5d","study_id":"60edd13110225f80f9f3709b","session_id":"6196c4a300ae004bea2de010","condition":"contingent","relevant_dimensions":["antennae","pattern"],"bee_group":{"antennae":"B","wings":"X","pattern":"S","legs":"X"},"bonus":0.7600000000000012},{"rt":3266.6999999997206,"stimulus":"Welcome! Press any key to begin.","response":" ","trial_type":"html-keyboard-response","trial_index":2,"time_elapsed":51113,"internal_node_id":"0.0-2.0","subject_id":"5c7d8138896a0b00011c2f5d","study_id":"60edd13110225f80f9f3709b","session_id":"6196c4a300ae004bea2de010","condition":"contingent","relevant_dimensions":["antennae","pattern"],"bee_group":{"antennae":"B","wings":"X","pattern":"S","legs":"X"},"bonus":0.7600000000000012},{"view_history":[{"page_index":0,"viewing_time":7836.399999999907},{"page_index":1,"viewing_time":18751.299999999814},{"page_index":2,"viewing_time":29119.30000000028},{"page_index":3,"viewing_time":24151.299999999814},{"page_index":4,"viewing_time":8239.80000000028},{"page_index":5,"viewing_time":16631.599999999627},{"page_index":6,"viewing_time":12663.700000000186},{"page_index":7,"viewing_time":9807.700000000186},{"page_index":8,"viewing_time":8527.799999999814},{"page_index":9,"viewing_time":5959.899999999907},{"page_index":10,"viewing_time":6295.800000000279},{"page_index":11,"viewing_time":16103.69999999972},{"page_index":12,"viewing_time":11239.899999999907},{"page_index":13,"viewing_time":3767.4000000003725},{"page_index":14,"viewing_time":4288.199999999721}],"rt":183384.1000000001,"trial_type":"instructions","trial_index":3,"time_elapsed":234493,"internal_node_id":"0.0-3.0-0.0","subject_id":"5c7d8138896a0b00011c2f5d","study_id":"60edd13110225f80f9f3709b","session_id":"6196c4a300ae004bea2de010","condition":"contingent","relevant_dimensions":["antennae","pattern"],"bee_group":{"antennae":"B","wings":"X","pattern":"S","legs":"X"},"bonus":0.7600000000000012},{"rt":19868.19999999972,"response":{"Q0":["Two or six legs","Stripes or spots on body","Single or double wings","Antennae or no antennae"]},"question_order":[0],"trial_type":"survey-multi-select","trial_index":4,"time_elapsed":254371,"internal_node_id":"0.0-3.0-1.0","subject_id":"5c7d8138896a0b00011c2f5d","study_id":"60edd13110225f80f9f3709b","session_id":"6196c4a300ae004bea2de010","condition":"contingent","relevant_dimensions":["antennae","pattern"],"bee_group":{"antennae":"B","wings":"X","pattern":"S","legs":"X"},"correct":true,"bonus":0.7600000000000012},{"rt":46572.60000000009,"response":{"Q1":"No.","Q2":"Based on the four features of the bee.","Q3":"You do not learn if it was friendly or dangerous, and do not alter your bonus."},"question_order":[0,1,2],"trial_type":"survey-multi-choice","trial_index":5,"time_elapsed":300945,"internal_node_id":"0.0-3.0-2.0","subject_id":"5c7d8138896a0b00011c2f5d","study_id":"60edd13110225f80f9f3709b","session_id":"6196c4a300ae004bea2de010","condition":"contingent","relevant_dimensions":["antennae","pattern"],"bee_group":{"antennae":"B","wings":"X","pattern":"S","legs":"X"},"correct":true,"bonus":0.7600000000000012},{"rt":1950.1000000000931,"stimulus":"<p>Congrats, you got everything right<br>When you're ready, click the button below to continue to the experiment.</p>","response":0,"trial_type":"html-button-response","trial_index":6,"time_elapsed":302897,"internal_node_id":"0.0-3.0-3.0","subject_id":"5c7d8138896a0b00011c2f5d","study_id":"60edd13110225f80f9f3709b","session_id":"6196c4a300ae004bea2de010","condition":"contingent","relevant_dimensions":["antennae","pattern"],"bee_group":{"antennae":"B","wings":"X","pattern":"S","legs":"X"},"bonus":0.7600000000000012},{"rt":9837.200000000186,"stimulus":"bees-with-color/bee-A1DM.svg","response":1,"trial_type":"image-button-response","trial_index":7,"time_elapsed":312737,"internal_node_id":"0.0-4.0-0.0","subject_id":"5c7d8138896a0b00011c2f5d","study_id":"60edd13110225f80f9f3709b","session_id":"6196c4a300ae004bea2de010","condition":"contingent","relevant_dimensions":["antennae","pattern"],"bee_group":{"antennae":"B","wings":"X","pattern":"S","legs":"X"},"action":"avoid","summary":"bad-avoid","bonus":0.7600000000000012},{"rt":4700.800000000279,"stimulus":"\n                    <p><b>Action: <em>avoid</em></b></p>\n                    <p>This is the bee that you just saw.</p>\n                    <img src=\"bees-with-color/bee-A1DM.svg\" width=\"200\">\n                    <p><br>Your bonus pay is unchanged, and remains at $0.54.</p>\n            ","response":0,"trial_type":"html-button-response","trial_index":8,"time_elapsed":317441,"internal_node_id":"0.0-4.0-1.0","subject_id":"5c7d8138896a0b00011c2f5d","study_id":"60edd13110225f80f9f3709b","session_id":"6196c4a300ae004bea2de010","condition":"contingent","relevant_dimensions":["antennae","pattern"],"bee_group":{"antennae":"B","wings":"X","pattern":"S","legs":"X"},"bonus":0.7600000000000012},{"rt":1405.7000000001863,"stimulus":"bees-with-color/bee-B1SF.svg","response":0,"trial_type":"image-button-response","trial_index":9,"time_elapsed":318849,"internal_node_id":"0.0-4.0-0.1","subject_id":"5c7d8138896a0b00011c2f5d","study_id":"60edd13110225f80f9f3709b","session_id":"6196c4a300ae004bea2de010","condition":"contingent","relevant_dimensions":["antennae","pattern"],"bee_group":{"antennae":"B","wings":"X","pattern":"S","legs":"X"},"action":"harvest","summary":"bad-harvest","bonus":0.7600000000000012},{"rt":10685.899999999907,"stimulus":"\n                    <p><b>Action: <em>harvest</em></b></p>\n                    <p>This is the bee that you just saw.</p>\n                    <img src=\"bees-with-color/bee-B1SF.svg\" width=\"200\">\n                    <p><span class=\"redText\">Bad choice, the bee was angry.</span><br><b>You have been stung!</b><br>Your pay has been decreased by $0.10. Your bonus pay is now $0.44.</p>\n            ","response":0,"trial_type":"html-button-response","trial_index":10,"time_elapsed":329536,"internal_node_id":"0.0-4.0-1.1","subject_id":"5c7d8138896a0b00011c2f5d","study_id":"60edd13110225f80f9f3709b","session_id":"6196c4a300ae004bea2de010","condition":"contingent","relevant_dimensions":["antennae","pattern"],"bee_group":{"antennae":"B","wings":"X","pattern":"S","legs":"X"},"bonus":0.7600000000000012},{"rt":1893.8999999999069,"stimulus":"bees-with-color/bee-A1DF.svg","response":0,"trial_type":"image-button-response","trial_index":11,"time_elapsed":331432,"internal_node_id":"0.0-4.0-0.2","subject_id":"5c7d8138896a0b00011c2f5d","study_id":"60edd13110225f80f9f3709b","session_id":"6196c4a300ae004bea2de010","condition":"contingent","relevant_dimensions":["antennae","pattern"],"bee_group":{"antennae":"B","wings":"X","pattern":"S","legs":"X"},"action":"harvest","summary":"good-harvest","bonus":0.7600000000000012},{"rt":6070.4000000003725,"stimulus":"\n                    <p><b>Action: <em>harvest</em></b></p>\n                    <p>This is the bee that you just saw.</p>\n                    <img src=\"bees-with-color/bee-A1DF.svg\" width=\"200\">\n                    <p><span class=\"greenText\"><b>Successful harvest!</b></span><br>Your pay has increased by $0.02. Your bonus pay is now $0.46.</p>\n            ","response":0,"trial_type":"html-button-response","trial_index":12,"time_elapsed":337504,"internal_node_id":"0.0-4.0-1.2","subject_id":"5c7d8138896a0b00011c2f5d","study_id":"60edd13110225f80f9f3709b","session_id":"6196c4a300ae004bea2de010","condition":"contingent","relevant_dimensions":["antennae","pattern"],"bee_group":{"antennae":"B","wings":"X","pattern":"S","legs":"X"},"bonus":0.7600000000000012},{"rt":4422,"stimulus":"bees-with-color/bee-A2SF.svg","response":1,"trial_type":"image-button-response","trial_index":13,"time_elapsed":341928,"internal_node_id":"0.0-4.0-0.3","subject_id":"5c7d8138896a0b00011c2f5d","study_id":"60edd13110225f80f9f3709b","session_id":"6196c4a300ae004bea2de010","condition":"contingent","relevant_dimensions":["antennae","pattern"],"bee_group":{"antennae":"B","wings":"X","pattern":"S","legs":"X"},"action":"avoid","summary":"bad-avoid","bonus":0.7600000000000012},{"rt":1590.2999999998137,"stimulus":"\n                    <p><b>Action: <em>avoid</em></b></p>\n                    <p>This is the bee that you just saw.</p>\n                    <img src=\"bees-with-color/bee-A2SF.svg\" width=\"200\">\n                    <p><br>Your bonus pay is unchanged, and remains at $0.46.</p>\n            ","response":0,"trial_type":"html-button-response","trial_index":14,"time_elapsed":343520,"internal_node_id":"0.0-4.0-1.3","subject_id":"5c7d8138896a0b00011c2f5d","study_id":"60edd13110225f80f9f3709b","session_id":"6196c4a300ae004bea2de010","condition":"contingent","relevant_dimensions":["antennae","pattern"],"bee_group":{"antennae":"B","wings":"X","pattern":"S","legs":"X"},"bonus":0.7600000000000012},{"rt":6510,"stimulus":"bees-with-color/bee-A2DF.svg","response":0,"trial_type":"image-button-response","trial_index":15,"time_elapsed":350032,"internal_node_id":"0.0-4.0-0.4","subject_id":"5c7d8138896a0b00011c2f5d","study_id":"60edd13110225f80f9f3709b","session_id":"6196c4a300ae004bea2de010","condition":"contingent","relevant_dimensions":["antennae","pattern"],"bee_group":{"antennae":"B","wings":"X","pattern":"S","legs":"X"},"action":"harvest","summary":"good-harvest","bonus":0.7600000000000012},{"rt":1669.8999999999069,"stimulus":"\n                    <p><b>Action: <em>harvest</em></b></p>\n                    <p>This is the bee that you just saw.</p>\n                    <img src=\"bees-with-color/bee-A2DF.svg\" width=\"200\">\n                    <p><span class=\"greenText\"><b>Successful harvest!</b></span><br>Your pay has increased by $0.02. Your bonus pay is now $0.48.</p>\n            ","response":0,"trial_type":"html-button-response","trial_index":16,"time_elapsed":351704,"internal_node_id":"0.0-4.0-1.4","subject_id":"5c7d8138896a0b00011c2f5d","study_id":"60edd13110225f80f9f3709b","session_id":"6196c4a300ae004bea2de010","condition":"contingent","relevant_dimensions":["antennae","pattern"],"bee_group":{"antennae":"B","wings":"X","pattern":"S","legs":"X"},"bonus":0.7600000000000012},{"rt":2662,"stimulus":"bees-with-color/bee-B2SF.svg","response":1,"trial_type":"image-button-response","trial_index":17,"time_elapsed":354368,"internal_node_id":"0.0-4.0-0.5","subject_id":"5c7d8138896a0b00011c2f5d","study_id":"60edd13110225f80f9f3709b","session_id":"6196c4a300ae004bea2de010","condition":"contingent","relevant_dimensions":["antennae","pattern"],"bee_group":{"antennae":"B","wings":"X","pattern":"S","legs":"X"},"action":"avoid","summary":"good-avoid","bonus":0.7600000000000012},{"rt":1182.4000000003725,"stimulus":"\n                    <p><b>Action: <em>avoid</em></b></p>\n                    <p>This is the bee that you just saw.</p>\n                    <img src=\"bees-with-color/bee-B2SF.svg\" width=\"200\">\n                    <p><br>Your bonus pay is unchanged, and remains at $0.48.</p>\n            ","response":0,"trial_type":"html-button-response","trial_index":18,"time_elapsed":355552,"internal_node_id":"0.0-4.0-1.5","subject_id":"5c7d8138896a0b00011c2f5d","study_id":"60edd13110225f80f9f3709b","session_id":"6196c4a300ae004bea2de010","condition":"contingent","relevant_dimensions":["antennae","pattern"],"bee_group":{"antennae":"B","wings":"X","pattern":"S","legs":"X"},"bonus":0.7600000000000012},{"rt":2086.3000000002794,"stimulus":"bees-with-color/bee-B1DM.svg","response":0,"trial_type":"image-button-response","trial_index":19,"time_elapsed":357640,"internal_node_id":"0.0-4.0-0.6","subject_id":"5c7d8138896a0b00011c2f5d","study_id":"60edd13110225f80f9f3709b","session_id":"6196c4a300ae004bea2de010","condition":"contingent","relevant_dimensions":["antennae","pattern"],"bee_group":{"antennae":"B","wings":"X","pattern":"S","legs":"X"},"action":"harvest","summary":"good-harvest","bonus":0.7600000000000012},{"rt":1334.4000000003725,"stimulus":"\n                    <p><b>Action: <em>harvest</em></b></p>\n                    <p>This is the bee that you just saw.</p>\n                    <img src=\"bees-with-color/bee-B1DM.svg\" width=\"200\">\n                    <p><span class=\"greenText\"><b>Successful harvest!</b></span><br>Your pay has increased by $0.02. Your bonus pay is now $0.50.</p>\n            ","response":0,"trial_type":"html-button-response","trial_index":20,"time_elapsed":358976,"internal_node_id":"0.0-4.0-1.6","subject_id":"5c7d8138896a0b00011c2f5d","study_id":"60edd13110225f80f9f3709b","session_id":"6196c4a300ae004bea2de010","condition":"contingent","relevant_dimensions":["antennae","pattern"],"bee_group":{"antennae":"B","wings":"X","pattern":"S","legs":"X"},"bonus":0.7600000000000012},{"rt":2342.2000000001863,"stimulus":"bees-with-color/bee-A2DM.svg","response":0,"trial_type":"image-button-response","trial_index":21,"time_elapsed":361324,"internal_node_id":"0.0-4.0-0.7","subject_id":"5c7d8138896a0b00011c2f5d","study_id":"60edd13110225f80f9f3709b","session_id":"6196c4a300ae004bea2de010","condition":"contingent","relevant_dimensions":["antennae","pattern"],"bee_group":{"antennae":"B","wings":"X","pattern":"S","legs":"X"},"action":"harvest","summary":"good-harvest","bonus":0.7600000000000012},{"rt":1262.5,"stimulus":"\n                    <p><b>Action: <em>harvest</em></b></p>\n                    <p>This is the bee that you just saw.</p>\n                    <img src=\"bees-with-color/bee-A2DM.svg\" width=\"200\">\n                    <p><span class=\"greenText\"><b>Successful harvest!</b></span><br>Your pay has increased by $0.02. Your bonus pay is now $0.52.</p>\n            ","response":0,"trial_type":"html-button-response","trial_index":22,"time_elapsed":362588,"internal_node_id":"0.0-4.0-1.7","subject_id":"5c7d8138896a0b00011c2f5d","study_id":"60edd13110225f80f9f3709b","session_id":"6196c4a300ae004bea2de010","condition":"contingent","relevant_dimensions":["antennae","pattern"],"bee_group":{"antennae":"B","wings":"X","pattern":"S","legs":"X"},"bonus":0.7600000000000012},{"rt":5517.899999999907,"stimulus":"bees-with-color/bee-A2SM.svg","response":0,"trial_type":"image-button-response","trial_index":23,"time_elapsed":368107,"internal_node_id":"0.0-4.0-0.8","subject_id":"5c7d8138896a0b00011c2f5d","study_id":"60edd13110225f80f9f3709b","session_id":"6196c4a300ae004bea2de010","condition":"contingent","relevant_dimensions":["antennae","pattern"],"bee_group":{"antennae":"B","wings":"X","pattern":"S","legs":"X"},"action":"harvest","summary":"good-harvest","bonus":0.7600000000000012},{"rt":1302.6000000000931,"stimulus":"\n                    <p><b>Action: <em>harvest</em></b></p>\n                    <p>This is the bee that you just saw.</p>\n                    <img src=\"bees-with-color/bee-A2SM.svg\" width=\"200\">\n                    <p><span class=\"greenText\"><b>Successful harvest!</b></span><br>Your pay has increased by $0.02. Your bonus pay is now $0.54.</p>\n            ","response":0,"trial_type":"html-button-response","trial_index":24,"time_elapsed":369411,"internal_node_id":"0.0-4.0-1.8","subject_id":"5c7d8138896a0b00011c2f5d","study_id":"60edd13110225f80f9f3709b","session_id":"6196c4a300ae004bea2de010","condition":"contingent","relevant_dimensions":["antennae","pattern"],"bee_group":{"antennae":"B","wings":"X","pattern":"S","legs":"X"},"bonus":0.7600000000000012},{"rt":2902.399999999907,"stimulus":"bees-with-color/bee-B2SM.svg","response":0,"trial_type":"image-button-response","trial_index":25,"time_elapsed":372315,"internal_node_id":"0.0-4.0-0.9","subject_id":"5c7d8138896a0b00011c2f5d","study_id":"60edd13110225f80f9f3709b","session_id":"6196c4a300ae004bea2de010","condition":"contingent","relevant_dimensions":["antennae","pattern"],"bee_group":{"antennae":"B","wings":"X","pattern":"S","legs":"X"},"action":"harvest","summary":"bad-harvest","bonus":0.7600000000000012},{"rt":1150.5999999996275,"stimulus":"\n                    <p><b>Action: <em>harvest</em></b></p>\n                    <p>This is the bee that you just saw.</p>\n                    <img src=\"bees-with-color/bee-B2SM.svg\" width=\"200\">\n                    <p><span class=\"redText\">Bad choice, the bee was angry.</span><br><b>You have been stung!</b><br>Your pay has been decreased by $0.10. Your bonus pay is now $0.44.</p>\n            ","response":0,"trial_type":"html-button-response","trial_index":26,"time_elapsed":373467,"internal_node_id":"0.0-4.0-1.9","subject_id":"5c7d8138896a0b00011c2f5d","study_id":"60edd13110225f80f9f3709b","session_id":"6196c4a300ae004bea2de010","condition":"contingent","relevant_dimensions":["antennae","pattern"],"bee_group":{"antennae":"B","wings":"X","pattern":"S","legs":"X"},"bonus":0.7600000000000012},{"rt":8534.200000000186,"stimulus":"bees-with-color/bee-A1SM.svg","response":1,"trial_type":"image-button-response","trial_index":27,"time_elapsed":382003,"internal_node_id":"0.0-4.0-0.10","subject_id":"5c7d8138896a0b00011c2f5d","study_id":"60edd13110225f80f9f3709b","session_id":"6196c4a300ae004bea2de010","condition":"contingent","relevant_dimensions":["antennae","pattern"],"bee_group":{"antennae":"B","wings":"X","pattern":"S","legs":"X"},"action":"avoid","summary":"bad-avoid","bonus":0.7600000000000012},{"rt":966.2999999998137,"stimulus":"\n                    <p><b>Action: <em>avoid</em></b></p>\n                    <p>This is the bee that you just saw.</p>\n                    <img src=\"bees-with-color/bee-A1SM.svg\" width=\"200\">\n                    <p><br>Your bonus pay is unchanged, and remains at $0.44.</p>\n            ","response":0,"trial_type":"html-button-response","trial_index":28,"time_elapsed":382971,"internal_node_id":"0.0-4.0-1.10","subject_id":"5c7d8138896a0b00011c2f5d","study_id":"60edd13110225f80f9f3709b","session_id":"6196c4a300ae004bea2de010","condition":"contingent","relevant_dimensions":["antennae","pattern"],"bee_group":{"antennae":"B","wings":"X","pattern":"S","legs":"X"},"bonus":0.7600000000000012},{"rt":6846.600000000093,"stimulus":"bees-with-color/bee-B1DF.svg","response":1,"trial_type":"image-button-response","trial_index":29,"time_elapsed":389819,"internal_node_id":"0.0-4.0-0.11","subject_id":"5c7d8138896a0b00011c2f5d","study_id":"60edd13110225f80f9f3709b","session_id":"6196c4a300ae004bea2de010","condition":"contingent","relevant_dimensions":["antennae","pattern"],"bee_group":{"antennae":"B","wings":"X","pattern":"S","legs":"X"},"action":"avoid","summary":"bad-avoid","bonus":0.7600000000000012},{"rt":1118.3999999999069,"stimulus":"\n                    <p><b>Action: <em>avoid</em></b></p>\n                    <p>This is the bee that you just saw.</p>\n                    <img src=\"bees-with-color/bee-B1DF.svg\" width=\"200\">\n                    <p><br>Your bonus pay is unchanged, and remains at $0.44.</p>\n            ","response":0,"trial_type":"html-button-response","trial_index":30,"time_elapsed":390939,"internal_node_id":"0.0-4.0-1.11","subject_id":"5c7d8138896a0b00011c2f5d","study_id":"60edd13110225f80f9f3709b","session_id":"6196c4a300ae004bea2de010","condition":"contingent","relevant_dimensions":["antennae","pattern"],"bee_group":{"antennae":"B","wings":"X","pattern":"S","legs":"X"},"bonus":0.7600000000000012},{"rt":3286.399999999907,"stimulus":"bees-with-color/bee-B2DM.svg","response":0,"trial_type":"image-button-response","trial_index":31,"time_elapsed":394227,"internal_node_id":"0.0-4.0-0.12","subject_id":"5c7d8138896a0b00011c2f5d","study_id":"60edd13110225f80f9f3709b","session_id":"6196c4a300ae004bea2de010","condition":"contingent","relevant_dimensions":["antennae","pattern"],"bee_group":{"antennae":"B","wings":"X","pattern":"S","legs":"X"},"action":"harvest","summary":"good-harvest","bonus":0.7600000000000012},{"rt":886.5,"stimulus":"\n                    <p><b>Action: <em>harvest</em></b></p>\n                    <p>This is the bee that you just saw.</p>\n                    <img src=\"bees-with-color/bee-B2DM.svg\" width=\"200\">\n                    <p><span class=\"greenText\"><b>Successful harvest!</b></span><br>Your pay has increased by $0.02. Your bonus pay is now $0.46.</p>\n            ","response":0,"trial_type":"html-button-response","trial_index":32,"time_elapsed":395115,"internal_node_id":"0.0-4.0-1.12","subject_id":"5c7d8138896a0b00011c2f5d","study_id":"60edd13110225f80f9f3709b","session_id":"6196c4a300ae004bea2de010","condition":"contingent","relevant_dimensions":["antennae","pattern"],"bee_group":{"antennae":"B","wings":"X","pattern":"S","legs":"X"},"bonus":0.7600000000000012},{"rt":2342.3000000002794,"stimulus":"bees-with-color/bee-B1SM.svg","response":1,"trial_type":"image-button-response","trial_index":33,"time_elapsed":397459,"internal_node_id":"0.0-4.0-0.13","subject_id":"5c7d8138896a0b00011c2f5d","study_id":"60edd13110225f80f9f3709b","session_id":"6196c4a300ae004bea2de010","condition":"contingent","relevant_dimensions":["antennae","pattern"],"bee_group":{"antennae":"B","wings":"X","pattern":"S","legs":"X"},"action":"avoid","summary":"good-avoid","bonus":0.7600000000000012},{"rt":1286.5,"stimulus":"\n                    <p><b>Action: <em>avoid</em></b></p>\n                    <p>This is the bee that you just saw.</p>\n                    <img src=\"bees-with-color/bee-B1SM.svg\" width=\"200\">\n                    <p><br>Your bonus pay is unchanged, and remains at $0.46.</p>\n            ","response":0,"trial_type":"html-button-response","trial_index":34,"time_elapsed":398747,"internal_node_id":"0.0-4.0-1.13","subject_id":"5c7d8138896a0b00011c2f5d","study_id":"60edd13110225f80f9f3709b","session_id":"6196c4a300ae004bea2de010","condition":"contingent","relevant_dimensions":["antennae","pattern"],"bee_group":{"antennae":"B","wings":"X","pattern":"S","legs":"X"},"bonus":0.7600000000000012},{"rt":4766.5,"stimulus":"bees-with-color/bee-A1SF.svg","response":1,"trial_type":"image-button-response","trial_index":35,"time_elapsed":403515,"internal_node_id":"0.0-4.0-0.14","subject_id":"5c7d8138896a0b00011c2f5d","study_id":"60edd13110225f80f9f3709b","session_id":"6196c4a300ae004bea2de010","condition":"contingent","relevant_dimensions":["antennae","pattern"],"bee_group":{"antennae":"B","wings":"X","pattern":"S","legs":"X"},"action":"avoid","summary":"bad-avoid","bonus":0.7600000000000012},{"rt":910.2999999998137,"stimulus":"\n                    <p><b>Action: <em>avoid</em></b></p>\n                    <p>This is the bee that you just saw.</p>\n                    <img src=\"bees-with-color/bee-A1SF.svg\" width=\"200\">\n                    <p><br>Your bonus pay is unchanged, and remains at $0.46.</p>\n            ","response":0,"trial_type":"html-button-response","trial_index":36,"time_elapsed":404426,"internal_node_id":"0.0-4.0-1.14","subject_id":"5c7d8138896a0b00011c2f5d","study_id":"60edd13110225f80f9f3709b","session_id":"6196c4a300ae004bea2de010","condition":"contingent","relevant_dimensions":["antennae","pattern"],"bee_group":{"antennae":"B","wings":"X","pattern":"S","legs":"X"},"bonus":0.7600000000000012},{"rt":5046.399999999907,"stimulus":"bees-with-color/bee-B2DF.svg","response":0,"trial_type":"image-button-response","trial_index":37,"time_elapsed":409474,"internal_node_id":"0.0-4.0-0.15","subject_id":"5c7d8138896a0b00011c2f5d","study_id":"60edd13110225f80f9f3709b","session_id":"6196c4a300ae004bea2de010","condition":"contingent","relevant_dimensions":["antennae","pattern"],"bee_group":{"antennae":"B","wings":"X","pattern":"S","legs":"X"},"action":"harvest","summary":"good-harvest","bonus":0.7600000000000012},{"rt":1118.6999999997206,"stimulus":"\n                    <p><b>Action: <em>harvest</em></b></p>\n                    <p>This is the bee that you just saw.</p>\n                    <img src=\"bees-with-color/bee-B2DF.svg\" width=\"200\">\n                    <p><span class=\"greenText\"><b>Successful harvest!</b></span><br>Your pay has increased by $0.02. Your bonus pay is now $0.48.</p>\n            ","response":0,"trial_type":"html-button-response","trial_index":38,"time_elapsed":410594,"internal_node_id":"0.0-4.0-1.15","subject_id":"5c7d8138896a0b00011c2f5d","study_id":"60edd13110225f80f9f3709b","session_id":"6196c4a300ae004bea2de010","condition":"contingent","relevant_dimensions":["antennae","pattern"],"bee_group":{"antennae":"B","wings":"X","pattern":"S","legs":"X"},"bonus":0.7600000000000012},{"rt":3174.2000000001863,"stimulus":"bees-with-color/bee-B1DF.svg","response":1,"trial_type":"image-button-response","trial_index":39,"time_elapsed":413770,"internal_node_id":"0.0-4.0-0.16","subject_id":"5c7d8138896a0b00011c2f5d","study_id":"60edd13110225f80f9f3709b","session_id":"6196c4a300ae004bea2de010","condition":"contingent","relevant_dimensions":["antennae","pattern"],"bee_group":{"antennae":"B","wings":"X","pattern":"S","legs":"X"},"action":"avoid","summary":"bad-avoid","bonus":0.7600000000000012},{"rt":886.4000000003725,"stimulus":"\n                    <p><b>Action: <em>avoid</em></b></p>\n                    <p>This is the bee that you just saw.</p>\n                    <img src=\"bees-with-color/bee-B1DF.svg\" width=\"200\">\n                    <p><br>Your bonus pay is unchanged, and remains at $0.48.</p>\n            ","response":0,"trial_type":"html-button-response","trial_index":40,"time_elapsed":414658,"internal_node_id":"0.0-4.0-1.16","subject_id":"5c7d8138896a0b00011c2f5d","study_id":"60edd13110225f80f9f3709b","session_id":"6196c4a300ae004bea2de010","condition":"contingent","relevant_dimensions":["antennae","pattern"],"bee_group":{"antennae":"B","wings":"X","pattern":"S","legs":"X"},"bonus":0.7600000000000012},{"rt":1518.3000000002794,"stimulus":"bees-with-color/bee-B2DF.svg","response":0,"trial_type":"image-button-response","trial_index":41,"time_elapsed":416178,"internal_node_id":"0.0-4.0-0.17","subject_id":"5c7d8138896a0b00011c2f5d","study_id":"60edd13110225f80f9f3709b","session_id":"6196c4a300ae004bea2de010","condition":"contingent","relevant_dimensions":["antennae","pattern"],"bee_group":{"antennae":"B","wings":"X","pattern":"S","legs":"X"},"action":"harvest","summary":"good-harvest","bonus":0.7600000000000012},{"rt":750.5,"stimulus":"\n                    <p><b>Action: <em>harvest</em></b></p>\n                    <p>This is the bee that you just saw.</p>\n                    <img src=\"bees-with-color/bee-B2DF.svg\" width=\"200\">\n                    <p><span class=\"greenText\"><b>Successful harvest!</b></span><br>Your pay has increased by $0.02. Your bonus pay is now $0.50.</p>\n            ","response":0,"trial_type":"html-button-response","trial_index":42,"time_elapsed":416930,"internal_node_id":"0.0-4.0-1.17","subject_id":"5c7d8138896a0b00011c2f5d","study_id":"60edd13110225f80f9f3709b","session_id":"6196c4a300ae004bea2de010","condition":"contingent","relevant_dimensions":["antennae","pattern"],"bee_group":{"antennae":"B","wings":"X","pattern":"S","legs":"X"},"bonus":0.7600000000000012},{"rt":2582.5,"stimulus":"bees-with-color/bee-A1DF.svg","response":1,"trial_type":"image-button-response","trial_index":43,"time_elapsed":419514,"internal_node_id":"0.0-4.0-0.18","subject_id":"5c7d8138896a0b00011c2f5d","study_id":"60edd13110225f80f9f3709b","session_id":"6196c4a300ae004bea2de010","condition":"contingent","relevant_dimensions":["antennae","pattern"],"bee_group":{"antennae":"B","wings":"X","pattern":"S","legs":"X"},"action":"avoid","summary":"bad-avoid","bonus":0.7600000000000012},{"rt":1686.5,"stimulus":"\n                    <p><b>Action: <em>avoid</em></b></p>\n                    <p>This is the bee that you just saw.</p>\n                    <img src=\"bees-with-color/bee-A1DF.svg\" width=\"200\">\n                    <p><br>Your bonus pay is unchanged, and remains at $0.50.</p>\n            ","response":0,"trial_type":"html-button-response","trial_index":44,"time_elapsed":421195,"internal_node_id":"0.0-4.0-1.18","subject_id":"5c7d8138896a0b00011c2f5d","study_id":"60edd13110225f80f9f3709b","session_id":"6196c4a300ae004bea2de010","condition":"contingent","relevant_dimensions":["antennae","pattern"],"bee_group":{"antennae":"B","wings":"X","pattern":"S","legs":"X"},"bonus":0.7600000000000012},{"rt":5006.100000000093,"stimulus":"bees-with-color/bee-A1SF.svg","response":1,"trial_type":"image-button-response","trial_index":45,"time_elapsed":426203,"internal_node_id":"0.0-4.0-0.19","subject_id":"5c7d8138896a0b00011c2f5d","study_id":"60edd13110225f80f9f3709b","session_id":"6196c4a300ae004bea2de010","condition":"contingent","relevant_dimensions":["antennae","pattern"],"bee_group":{"antennae":"B","wings":"X","pattern":"S","legs":"X"},"action":"avoid","summary":"bad-avoid","bonus":0.7600000000000012},{"rt":830.1000000000931,"stimulus":"\n                    <p><b>Action: <em>avoid</em></b></p>\n                    <p>This is the bee that you just saw.</p>\n                    <img src=\"bees-with-color/bee-A1SF.svg\" width=\"200\">\n                    <p><br>Your bonus pay is unchanged, and remains at $0.50.</p>\n            ","response":0,"trial_type":"html-button-response","trial_index":46,"time_elapsed":427034,"internal_node_id":"0.0-4.0-1.19","subject_id":"5c7d8138896a0b00011c2f5d","study_id":"60edd13110225f80f9f3709b","session_id":"6196c4a300ae004bea2de010","condition":"contingent","relevant_dimensions":["antennae","pattern"],"bee_group":{"antennae":"B","wings":"X","pattern":"S","legs":"X"},"bonus":0.7600000000000012},{"rt":1806.7000000001863,"stimulus":"bees-with-color/bee-A2DM.svg","response":0,"trial_type":"image-button-response","trial_index":47,"time_elapsed":428843,"internal_node_id":"0.0-4.0-0.20","subject_id":"5c7d8138896a0b00011c2f5d","study_id":"60edd13110225f80f9f3709b","session_id":"6196c4a300ae004bea2de010","condition":"contingent","relevant_dimensions":["antennae","pattern"],"bee_group":{"antennae":"B","wings":"X","pattern":"S","legs":"X"},"action":"harvest","summary":"good-harvest","bonus":0.7600000000000012},{"rt":934.3999999999069,"stimulus":"\n                    <p><b>Action: <em>harvest</em></b></p>\n                    <p>This is the bee that you just saw.</p>\n                    <img src=\"bees-with-color/bee-A2DM.svg\" width=\"200\">\n                    <p><span class=\"greenText\"><b>Successful harvest!</b></span><br>Your pay has increased by $0.02. Your bonus pay is now $0.52.</p>\n            ","response":0,"trial_type":"html-button-response","trial_index":48,"time_elapsed":429778,"internal_node_id":"0.0-4.0-1.20","subject_id":"5c7d8138896a0b00011c2f5d","study_id":"60edd13110225f80f9f3709b","session_id":"6196c4a300ae004bea2de010","condition":"contingent","relevant_dimensions":["antennae","pattern"],"bee_group":{"antennae":"B","wings":"X","pattern":"S","legs":"X"},"bonus":0.7600000000000012},{"rt":2958.2999999998137,"stimulus":"bees-with-color/bee-A2SM.svg","response":0,"trial_type":"image-button-response","trial_index":49,"time_elapsed":432738,"internal_node_id":"0.0-4.0-0.21","subject_id":"5c7d8138896a0b00011c2f5d","study_id":"60edd13110225f80f9f3709b","session_id":"6196c4a300ae004bea2de010","condition":"contingent","relevant_dimensions":["antennae","pattern"],"bee_group":{"antennae":"B","wings":"X","pattern":"S","legs":"X"},"action":"harvest","summary":"good-harvest","bonus":0.7600000000000012},{"rt":1174.3000000002794,"stimulus":"\n                    <p><b>Action: <em>harvest</em></b></p>\n                    <p>This is the bee that you just saw.</p>\n                    <img src=\"bees-with-color/bee-A2SM.svg\" width=\"200\">\n                    <p><span class=\"greenText\"><b>Successful harvest!</b></span><br>Your pay has increased by $0.02. Your bonus pay is now $0.54.</p>\n            ","response":0,"trial_type":"html-button-response","trial_index":50,"time_elapsed":433914,"internal_node_id":"0.0-4.0-1.21","subject_id":"5c7d8138896a0b00011c2f5d","study_id":"60edd13110225f80f9f3709b","session_id":"6196c4a300ae004bea2de010","condition":"contingent","relevant_dimensions":["antennae","pattern"],"bee_group":{"antennae":"B","wings":"X","pattern":"S","legs":"X"},"bonus":0.7600000000000012},{"rt":4094.100000000093,"stimulus":"bees-with-color/bee-B2SM.svg","response":0,"trial_type":"image-button-response","trial_index":51,"time_elapsed":438010,"internal_node_id":"0.0-4.0-0.22","subject_id":"5c7d8138896a0b00011c2f5d","study_id":"60edd13110225f80f9f3709b","session_id":"6196c4a300ae004bea2de010","condition":"contingent","relevant_dimensions":["antennae","pattern"],"bee_group":{"antennae":"B","wings":"X","pattern":"S","legs":"X"},"action":"harvest","summary":"bad-harvest","bonus":0.7600000000000012},{"rt":694.3000000002794,"stimulus":"\n                    <p><b>Action: <em>harvest</em></b></p>\n                    <p>This is the bee that you just saw.</p>\n                    <img src=\"bees-with-color/bee-B2SM.svg\" width=\"200\">\n                    <p><span class=\"redText\">Bad choice, the bee was angry.</span><br><b>You have been stung!</b><br>Your pay has been decreased by $0.10. Your bonus pay is now $0.44.</p>\n            ","response":0,"trial_type":"html-button-response","trial_index":52,"time_elapsed":438706,"internal_node_id":"0.0-4.0-1.22","subject_id":"5c7d8138896a0b00011c2f5d","study_id":"60edd13110225f80f9f3709b","session_id":"6196c4a300ae004bea2de010","condition":"contingent","relevant_dimensions":["antennae","pattern"],"bee_group":{"antennae":"B","wings":"X","pattern":"S","legs":"X"},"bonus":0.7600000000000012},{"rt":1638.1000000000931,"stimulus":"bees-with-color/bee-B1SF.svg","response":1,"trial_type":"image-button-response","trial_index":53,"time_elapsed":440346,"internal_node_id":"0.0-4.0-0.23","subject_id":"5c7d8138896a0b00011c2f5d","study_id":"60edd13110225f80f9f3709b","session_id":"6196c4a300ae004bea2de010","condition":"contingent","relevant_dimensions":["antennae","pattern"],"bee_group":{"antennae":"B","wings":"X","pattern":"S","legs":"X"},"action":"avoid","summary":"good-avoid","bonus":0.7600000000000012},{"rt":1198.3999999999069,"stimulus":"\n                    <p><b>Action: <em>avoid</em></b></p>\n                    <p>This is the bee that you just saw.</p>\n                    <img src=\"bees-with-color/bee-B1SF.svg\" width=\"200\">\n                    <p><br>Your bonus pay is unchanged, and remains at $0.44.</p>\n            ","response":0,"trial_type":"html-button-response","trial_index":54,"time_elapsed":441546,"internal_node_id":"0.0-4.0-1.23","subject_id":"5c7d8138896a0b00011c2f5d","study_id":"60edd13110225f80f9f3709b","session_id":"6196c4a300ae004bea2de010","condition":"contingent","relevant_dimensions":["antennae","pattern"],"bee_group":{"antennae":"B","wings":"X","pattern":"S","legs":"X"},"bonus":0.7600000000000012},{"rt":1390.2999999998137,"stimulus":"bees-with-color/bee-B2SF.svg","response":1,"trial_type":"image-button-response","trial_index":55,"time_elapsed":442938,"internal_node_id":"0.0-4.0-0.24","subject_id":"5c7d8138896a0b00011c2f5d","study_id":"60edd13110225f80f9f3709b","session_id":"6196c4a300ae004bea2de010","condition":"contingent","relevant_dimensions":["antennae","pattern"],"bee_group":{"antennae":"B","wings":"X","pattern":"S","legs":"X"},"action":"avoid","summary":"good-avoid","bonus":0.7600000000000012},{"rt":814.2999999998137,"stimulus":"\n                    <p><b>Action: <em>avoid</em></b></p>\n                    <p>This is the bee that you just saw.</p>\n                    <img src=\"bees-with-color/bee-B2SF.svg\" width=\"200\">\n                    <p><br>Your bonus pay is unchanged, and remains at $0.44.</p>\n            ","response":0,"trial_type":"html-button-response","trial_index":56,"time_elapsed":443754,"internal_node_id":"0.0-4.0-1.24","subject_id":"5c7d8138896a0b00011c2f5d","study_id":"60edd13110225f80f9f3709b","session_id":"6196c4a300ae004bea2de010","condition":"contingent","relevant_dimensions":["antennae","pattern"],"bee_group":{"antennae":"B","wings":"X","pattern":"S","legs":"X"},"bonus":0.7600000000000012},{"rt":1774.3999999999069,"stimulus":"bees-with-color/bee-A2SF.svg","response":0,"trial_type":"image-button-response","trial_index":57,"time_elapsed":445530,"internal_node_id":"0.0-4.0-0.25","subject_id":"5c7d8138896a0b00011c2f5d","study_id":"60edd13110225f80f9f3709b","session_id":"6196c4a300ae004bea2de010","condition":"contingent","relevant_dimensions":["antennae","pattern"],"bee_group":{"antennae":"B","wings":"X","pattern":"S","legs":"X"},"action":"harvest","summary":"good-harvest","bonus":0.7600000000000012},{"rt":774.3999999999069,"stimulus":"\n                    <p><b>Action: <em>harvest</em></b></p>\n                    <p>This is the bee that you just saw.</p>\n                    <img src=\"bees-with-color/bee-A2SF.svg\" width=\"200\">\n                    <p><span class=\"greenText\"><b>Successful harvest!</b></span><br>Your pay has increased by $0.02. Your bonus pay is now $0.46.</p>\n            ","response":0,"trial_type":"html-button-response","trial_index":58,"time_elapsed":446306,"internal_node_id":"0.0-4.0-1.25","subject_id":"5c7d8138896a0b00011c2f5d","study_id":"60edd13110225f80f9f3709b","session_id":"6196c4a300ae004bea2de010","condition":"contingent","relevant_dimensions":["antennae","pattern"],"bee_group":{"antennae":"B","wings":"X","pattern":"S","legs":"X"},"bonus":0.7600000000000012},{"rt":2406.5,"stimulus":"bees-with-color/bee-B2DM.svg","response":0,"trial_type":"image-button-response","trial_index":59,"time_elapsed":448714,"internal_node_id":"0.0-4.0-0.26","subject_id":"5c7d8138896a0b00011c2f5d","study_id":"60edd13110225f80f9f3709b","session_id":"6196c4a300ae004bea2de010","condition":"contingent","relevant_dimensions":["antennae","pattern"],"bee_group":{"antennae":"B","wings":"X","pattern":"S","legs":"X"},"action":"harvest","summary":"good-harvest","bonus":0.7600000000000012},{"rt":710,"stimulus":"\n                    <p><b>Action: <em>harvest</em></b></p>\n                    <p>This is the bee that you just saw.</p>\n                    <img src=\"bees-with-color/bee-B2DM.svg\" width=\"200\">\n                    <p><span class=\"greenText\"><b>Successful harvest!</b></span><br>Your pay has increased by $0.02. Your bonus pay is now $0.48.</p>\n            ","response":0,"trial_type":"html-button-response","trial_index":60,"time_elapsed":449426,"internal_node_id":"0.0-4.0-1.26","subject_id":"5c7d8138896a0b00011c2f5d","study_id":"60edd13110225f80f9f3709b","session_id":"6196c4a300ae004bea2de010","condition":"contingent","relevant_dimensions":["antennae","pattern"],"bee_group":{"antennae":"B","wings":"X","pattern":"S","legs":"X"},"bonus":0.7600000000000012},{"rt":2214.600000000093,"stimulus":"bees-with-color/bee-A1DM.svg","response":0,"trial_type":"image-button-response","trial_index":61,"time_elapsed":451642,"internal_node_id":"0.0-4.0-0.27","subject_id":"5c7d8138896a0b00011c2f5d","study_id":"60edd13110225f80f9f3709b","session_id":"6196c4a300ae004bea2de010","condition":"contingent","relevant_dimensions":["antennae","pattern"],"bee_group":{"antennae":"B","wings":"X","pattern":"S","legs":"X"},"action":"harvest","summary":"good-harvest","bonus":0.7600000000000012},{"rt":694.5,"stimulus":"\n                    <p><b>Action: <em>harvest</em></b></p>\n                    <p>This is the bee that you just saw.</p>\n                    <img src=\"bees-with-color/bee-A1DM.svg\" width=\"200\">\n                    <p><span class=\"greenText\"><b>Successful harvest!</b></span><br>Your pay has increased by $0.02. Your bonus pay is now $0.50.</p>\n            ","response":0,"trial_type":"html-button-response","trial_index":62,"time_elapsed":452338,"internal_node_id":"0.0-4.0-1.27","subject_id":"5c7d8138896a0b00011c2f5d","study_id":"60edd13110225f80f9f3709b","session_id":"6196c4a300ae004bea2de010","condition":"contingent","relevant_dimensions":["antennae","pattern"],"bee_group":{"antennae":"B","wings":"X","pattern":"S","legs":"X"},"bonus":0.7600000000000012},{"rt":3670.7999999998137,"stimulus":"bees-with-color/bee-B1DM.svg","response":0,"trial_type":"image-button-response","trial_index":63,"time_elapsed":456010,"internal_node_id":"0.0-4.0-0.28","subject_id":"5c7d8138896a0b00011c2f5d","study_id":"60edd13110225f80f9f3709b","session_id":"6196c4a300ae004bea2de010","condition":"contingent","relevant_dimensions":["antennae","pattern"],"bee_group":{"antennae":"B","wings":"X","pattern":"S","legs":"X"},"action":"harvest","summary":"good-harvest","bonus":0.7600000000000012},{"rt":806.6000000000931,"stimulus":"\n                    <p><b>Action: <em>harvest</em></b></p>\n                    <p>This is the bee that you just saw.</p>\n                    <img src=\"bees-with-color/bee-B1DM.svg\" width=\"200\">\n                    <p><span class=\"greenText\"><b>Successful harvest!</b></span><br>Your pay has increased by $0.02. Your bonus pay is now $0.52.</p>\n            ","response":0,"trial_type":"html-button-response","trial_index":64,"time_elapsed":456818,"internal_node_id":"0.0-4.0-1.28","subject_id":"5c7d8138896a0b00011c2f5d","study_id":"60edd13110225f80f9f3709b","session_id":"6196c4a300ae004bea2de010","condition":"contingent","relevant_dimensions":["antennae","pattern"],"bee_group":{"antennae":"B","wings":"X","pattern":"S","legs":"X"},"bonus":0.7600000000000012},{"rt":9462.299999999814,"stimulus":"bees-with-color/bee-B1SM.svg","response":0,"trial_type":"image-button-response","trial_index":65,"time_elapsed":466281,"internal_node_id":"0.0-4.0-0.29","subject_id":"5c7d8138896a0b00011c2f5d","study_id":"60edd13110225f80f9f3709b","session_id":"6196c4a300ae004bea2de010","condition":"contingent","relevant_dimensions":["antennae","pattern"],"bee_group":{"antennae":"B","wings":"X","pattern":"S","legs":"X"},"action":"harvest","summary":"bad-harvest","bonus":0.7600000000000012},{"rt":630.6999999997206,"stimulus":"\n                    <p><b>Action: <em>harvest</em></b></p>\n                    <p>This is the bee that you just saw.</p>\n                    <img src=\"bees-with-color/bee-B1SM.svg\" width=\"200\">\n                    <p><span class=\"redText\">Bad choice, the bee was angry.</span><br><b>You have been stung!</b><br>Your pay has been decreased by $0.10. Your bonus pay is now $0.42.</p>\n            ","response":0,"trial_type":"html-button-response","trial_index":66,"time_elapsed":466913,"internal_node_id":"0.0-4.0-1.29","subject_id":"5c7d8138896a0b00011c2f5d","study_id":"60edd13110225f80f9f3709b","session_id":"6196c4a300ae004bea2de010","condition":"contingent","relevant_dimensions":["antennae","pattern"],"bee_group":{"antennae":"B","wings":"X","pattern":"S","legs":"X"},"bonus":0.7600000000000012},{"rt":1798.3000000002794,"stimulus":"bees-with-color/bee-A1SM.svg","response":0,"trial_type":"image-button-response","trial_index":67,"time_elapsed":468713,"internal_node_id":"0.0-4.0-0.30","subject_id":"5c7d8138896a0b00011c2f5d","study_id":"60edd13110225f80f9f3709b","session_id":"6196c4a300ae004bea2de010","condition":"contingent","relevant_dimensions":["antennae","pattern"],"bee_group":{"antennae":"B","wings":"X","pattern":"S","legs":"X"},"action":"harvest","summary":"good-harvest","bonus":0.7600000000000012},{"rt":710.7999999998137,"stimulus":"\n                    <p><b>Action: <em>harvest</em></b></p>\n                    <p>This is the bee that you just saw.</p>\n                    <img src=\"bees-with-color/bee-A1SM.svg\" width=\"200\">\n                    <p><span class=\"greenText\"><b>Successful harvest!</b></span><br>Your pay has increased by $0.02. Your bonus pay is now $0.44.</p>\n            ","response":0,"trial_type":"html-button-response","trial_index":68,"time_elapsed":469425,"internal_node_id":"0.0-4.0-1.30","subject_id":"5c7d8138896a0b00011c2f5d","study_id":"60edd13110225f80f9f3709b","session_id":"6196c4a300ae004bea2de010","condition":"contingent","relevant_dimensions":["antennae","pattern"],"bee_group":{"antennae":"B","wings":"X","pattern":"S","legs":"X"},"bonus":0.7600000000000012},{"rt":1470.5,"stimulus":"bees-with-color/bee-A2DF.svg","response":0,"trial_type":"image-button-response","trial_index":69,"time_elapsed":470897,"internal_node_id":"0.0-4.0-0.31","subject_id":"5c7d8138896a0b00011c2f5d","study_id":"60edd13110225f80f9f3709b","session_id":"6196c4a300ae004bea2de010","condition":"contingent","relevant_dimensions":["antennae","pattern"],"bee_group":{"antennae":"B","wings":"X","pattern":"S","legs":"X"},"action":"harvest","summary":"good-harvest","bonus":0.7600000000000012},{"rt":678.8999999999069,"stimulus":"\n                    <p><b>Action: <em>harvest</em></b></p>\n                    <p>This is the bee that you just saw.</p>\n                    <img src=\"bees-with-color/bee-A2DF.svg\" width=\"200\">\n                    <p><span class=\"greenText\"><b>Successful harvest!</b></span><br>Your pay has increased by $0.02. Your bonus pay is now $0.46.</p>\n            ","response":0,"trial_type":"html-button-response","trial_index":70,"time_elapsed":471577,"internal_node_id":"0.0-4.0-1.31","subject_id":"5c7d8138896a0b00011c2f5d","study_id":"60edd13110225f80f9f3709b","session_id":"6196c4a300ae004bea2de010","condition":"contingent","relevant_dimensions":["antennae","pattern"],"bee_group":{"antennae":"B","wings":"X","pattern":"S","legs":"X"},"bonus":0.7600000000000012},{"rt":1462.7000000001863,"stimulus":"bees-with-color/bee-B2SM.svg","response":0,"trial_type":"image-button-response","trial_index":71,"time_elapsed":473041,"internal_node_id":"0.0-4.0-0.32","subject_id":"5c7d8138896a0b00011c2f5d","study_id":"60edd13110225f80f9f3709b","session_id":"6196c4a300ae004bea2de010","condition":"contingent","relevant_dimensions":["antennae","pattern"],"bee_group":{"antennae":"B","wings":"X","pattern":"S","legs":"X"},"action":"harvest","summary":"bad-harvest","bonus":0.7600000000000012},{"rt":622.7000000001863,"stimulus":"\n                    <p><b>Action: <em>harvest</em></b></p>\n                    <p>This is the bee that you just saw.</p>\n                    <img src=\"bees-with-color/bee-B2SM.svg\" width=\"200\">\n                    <p><span class=\"redText\">Bad choice, the bee was angry.</span><br><b>You have been stung!</b><br>Your pay has been decreased by $0.10. Your bonus pay is now $0.36.</p>\n            ","response":0,"trial_type":"html-button-response","trial_index":72,"time_elapsed":473665,"internal_node_id":"0.0-4.0-1.32","subject_id":"5c7d8138896a0b00011c2f5d","study_id":"60edd13110225f80f9f3709b","session_id":"6196c4a300ae004bea2de010","condition":"contingent","relevant_dimensions":["antennae","pattern"],"bee_group":{"antennae":"B","wings":"X","pattern":"S","legs":"X"},"bonus":0.7600000000000012},{"rt":1734.7000000001863,"stimulus":"bees-with-color/bee-A2SF.svg","response":0,"trial_type":"image-button-response","trial_index":73,"time_elapsed":475401,"internal_node_id":"0.0-4.0-0.33","subject_id":"5c7d8138896a0b00011c2f5d","study_id":"60edd13110225f80f9f3709b","session_id":"6196c4a300ae004bea2de010","condition":"contingent","relevant_dimensions":["antennae","pattern"],"bee_group":{"antennae":"B","wings":"X","pattern":"S","legs":"X"},"action":"harvest","summary":"good-harvest","bonus":0.7600000000000012},{"rt":846.5,"stimulus":"\n                    <p><b>Action: <em>harvest</em></b></p>\n                    <p>This is the bee that you just saw.</p>\n                    <img src=\"bees-with-color/bee-A2SF.svg\" width=\"200\">\n                    <p><span class=\"greenText\"><b>Successful harvest!</b></span><br>Your pay has increased by $0.02. Your bonus pay is now $0.38.</p>\n            ","response":0,"trial_type":"html-button-response","trial_index":74,"time_elapsed":476249,"internal_node_id":"0.0-4.0-1.33","subject_id":"5c7d8138896a0b00011c2f5d","study_id":"60edd13110225f80f9f3709b","session_id":"6196c4a300ae004bea2de010","condition":"contingent","relevant_dimensions":["antennae","pattern"],"bee_group":{"antennae":"B","wings":"X","pattern":"S","legs":"X"},"bonus":0.7600000000000012},{"rt":1510.8000000002794,"stimulus":"bees-with-color/bee-A1DM.svg","response":0,"trial_type":"image-button-response","trial_index":75,"time_elapsed":477761,"internal_node_id":"0.0-4.0-0.34","subject_id":"5c7d8138896a0b00011c2f5d","study_id":"60edd13110225f80f9f3709b","session_id":"6196c4a300ae004bea2de010","condition":"contingent","relevant_dimensions":["antennae","pattern"],"bee_group":{"antennae":"B","wings":"X","pattern":"S","legs":"X"},"action":"harvest","summary":"good-harvest","bonus":0.7600000000000012},{"rt":550.5,"stimulus":"\n                    <p><b>Action: <em>harvest</em></b></p>\n                    <p>This is the bee that you just saw.</p>\n                    <img src=\"bees-with-color/bee-A1DM.svg\" width=\"200\">\n                    <p><span class=\"greenText\"><b>Successful harvest!</b></span><br>Your pay has increased by $0.02. Your bonus pay is now $0.40.</p>\n            ","response":0,"trial_type":"html-button-response","trial_index":76,"time_elapsed":478313,"internal_node_id":"0.0-4.0-1.34","subject_id":"5c7d8138896a0b00011c2f5d","study_id":"60edd13110225f80f9f3709b","session_id":"6196c4a300ae004bea2de010","condition":"contingent","relevant_dimensions":["antennae","pattern"],"bee_group":{"antennae":"B","wings":"X","pattern":"S","legs":"X"},"bonus":0.7600000000000012},{"rt":1718.8000000002794,"stimulus":"bees-with-color/bee-A2DF.svg","response":0,"trial_type":"image-button-response","trial_index":77,"time_elapsed":480036,"internal_node_id":"0.0-4.0-0.35","subject_id":"5c7d8138896a0b00011c2f5d","study_id":"60edd13110225f80f9f3709b","session_id":"6196c4a300ae004bea2de010","condition":"contingent","relevant_dimensions":["antennae","pattern"],"bee_group":{"antennae":"B","wings":"X","pattern":"S","legs":"X"},"action":"harvest","summary":"good-harvest","bonus":0.7600000000000012},{"rt":598.6000000000931,"stimulus":"\n                    <p><b>Action: <em>harvest</em></b></p>\n                    <p>This is the bee that you just saw.</p>\n                    <img src=\"bees-with-color/bee-A2DF.svg\" width=\"200\">\n                    <p><span class=\"greenText\"><b>Successful harvest!</b></span><br>Your pay has increased by $0.02. Your bonus pay is now $0.42.</p>\n            ","response":0,"trial_type":"html-button-response","trial_index":78,"time_elapsed":480636,"internal_node_id":"0.0-4.0-1.35","subject_id":"5c7d8138896a0b00011c2f5d","study_id":"60edd13110225f80f9f3709b","session_id":"6196c4a300ae004bea2de010","condition":"contingent","relevant_dimensions":["antennae","pattern"],"bee_group":{"antennae":"B","wings":"X","pattern":"S","legs":"X"},"bonus":0.7600000000000012},{"rt":1694.7000000001863,"stimulus":"bees-with-color/bee-B2DM.svg","response":0,"trial_type":"image-button-response","trial_index":79,"time_elapsed":482332,"internal_node_id":"0.0-4.0-0.36","subject_id":"5c7d8138896a0b00011c2f5d","study_id":"60edd13110225f80f9f3709b","session_id":"6196c4a300ae004bea2de010","condition":"contingent","relevant_dimensions":["antennae","pattern"],"bee_group":{"antennae":"B","wings":"X","pattern":"S","legs":"X"},"action":"harvest","summary":"good-harvest","bonus":0.7600000000000012},{"rt":654.5,"stimulus":"\n                    <p><b>Action: <em>harvest</em></b></p>\n                    <p>This is the bee that you just saw.</p>\n                    <img src=\"bees-with-color/bee-B2DM.svg\" width=\"200\">\n                    <p><span class=\"greenText\"><b>Successful harvest!</b></span><br>Your pay has increased by $0.02. Your bonus pay is now $0.44.</p>\n            ","response":0,"trial_type":"html-button-response","trial_index":80,"time_elapsed":482988,"internal_node_id":"0.0-4.0-1.36","subject_id":"5c7d8138896a0b00011c2f5d","study_id":"60edd13110225f80f9f3709b","session_id":"6196c4a300ae004bea2de010","condition":"contingent","relevant_dimensions":["antennae","pattern"],"bee_group":{"antennae":"B","wings":"X","pattern":"S","legs":"X"},"bonus":0.7600000000000012},{"rt":1150.3999999999069,"stimulus":"bees-with-color/bee-B1SF.svg","response":1,"trial_type":"image-button-response","trial_index":81,"time_elapsed":484140,"internal_node_id":"0.0-4.0-0.37","subject_id":"5c7d8138896a0b00011c2f5d","study_id":"60edd13110225f80f9f3709b","session_id":"6196c4a300ae004bea2de010","condition":"contingent","relevant_dimensions":["antennae","pattern"],"bee_group":{"antennae":"B","wings":"X","pattern":"S","legs":"X"},"action":"avoid","summary":"good-avoid","bonus":0.7600000000000012},{"rt":1174.5,"stimulus":"\n                    <p><b>Action: <em>avoid</em></b></p>\n                    <p>This is the bee that you just saw.</p>\n                    <img src=\"bees-with-color/bee-B1SF.svg\" width=\"200\">\n                    <p><br>Your bonus pay is unchanged, and remains at $0.44.</p>\n            ","response":0,"trial_type":"html-button-response","trial_index":82,"time_elapsed":485316,"internal_node_id":"0.0-4.0-1.37","subject_id":"5c7d8138896a0b00011c2f5d","study_id":"60edd13110225f80f9f3709b","session_id":"6196c4a300ae004bea2de010","condition":"contingent","relevant_dimensions":["antennae","pattern"],"bee_group":{"antennae":"B","wings":"X","pattern":"S","legs":"X"},"bonus":0.7600000000000012},{"rt":2414.6999999997206,"stimulus":"bees-with-color/bee-A1DF.svg","response":0,"trial_type":"image-button-response","trial_index":83,"time_elapsed":487732,"internal_node_id":"0.0-4.0-0.38","subject_id":"5c7d8138896a0b00011c2f5d","study_id":"60edd13110225f80f9f3709b","session_id":"6196c4a300ae004bea2de010","condition":"contingent","relevant_dimensions":["antennae","pattern"],"bee_group":{"antennae":"B","wings":"X","pattern":"S","legs":"X"},"action":"harvest","summary":"good-harvest","bonus":0.7600000000000012},{"rt":1006.3999999999069,"stimulus":"\n                    <p><b>Action: <em>harvest</em></b></p>\n                    <p>This is the bee that you just saw.</p>\n                    <img src=\"bees-with-color/bee-A1DF.svg\" width=\"200\">\n                    <p><span class=\"greenText\"><b>Successful harvest!</b></span><br>Your pay has increased by $0.02. Your bonus pay is now $0.46.</p>\n            ","response":0,"trial_type":"html-button-response","trial_index":84,"time_elapsed":488740,"internal_node_id":"0.0-4.0-1.38","subject_id":"5c7d8138896a0b00011c2f5d","study_id":"60edd13110225f80f9f3709b","session_id":"6196c4a300ae004bea2de010","condition":"contingent","relevant_dimensions":["antennae","pattern"],"bee_group":{"antennae":"B","wings":"X","pattern":"S","legs":"X"},"bonus":0.7600000000000012},{"rt":1230.6999999997206,"stimulus":"bees-with-color/bee-A1SF.svg","response":1,"trial_type":"image-button-response","trial_index":85,"time_elapsed":489972,"internal_node_id":"0.0-4.0-0.39","subject_id":"5c7d8138896a0b00011c2f5d","study_id":"60edd13110225f80f9f3709b","session_id":"6196c4a300ae004bea2de010","condition":"contingent","relevant_dimensions":["antennae","pattern"],"bee_group":{"antennae":"B","wings":"X","pattern":"S","legs":"X"},"action":"avoid","summary":"bad-avoid","bonus":0.7600000000000012},{"rt":678.5,"stimulus":"\n                    <p><b>Action: <em>avoid</em></b></p>\n                    <p>This is the bee that you just saw.</p>\n                    <img src=\"bees-with-color/bee-A1SF.svg\" width=\"200\">\n                    <p><br>Your bonus pay is unchanged, and remains at $0.46.</p>\n            ","response":0,"trial_type":"html-button-response","trial_index":86,"time_elapsed":490652,"internal_node_id":"0.0-4.0-1.39","subject_id":"5c7d8138896a0b00011c2f5d","study_id":"60edd13110225f80f9f3709b","session_id":"6196c4a300ae004bea2de010","condition":"contingent","relevant_dimensions":["antennae","pattern"],"bee_group":{"antennae":"B","wings":"X","pattern":"S","legs":"X"},"bonus":0.7600000000000012},{"rt":2766.5,"stimulus":"bees-with-color/bee-A1SM.svg","response":0,"trial_type":"image-button-response","trial_index":87,"time_elapsed":493420,"internal_node_id":"0.0-4.0-0.40","subject_id":"5c7d8138896a0b00011c2f5d","study_id":"60edd13110225f80f9f3709b","session_id":"6196c4a300ae004bea2de010","condition":"contingent","relevant_dimensions":["antennae","pattern"],"bee_group":{"antennae":"B","wings":"X","pattern":"S","legs":"X"},"action":"harvest","summary":"good-harvest","bonus":0.7600000000000012},{"rt":638.3000000002794,"stimulus":"\n                    <p><b>Action: <em>harvest</em></b></p>\n                    <p>This is the bee that you just saw.</p>\n                    <img src=\"bees-with-color/bee-A1SM.svg\" width=\"200\">\n                    <p><span class=\"greenText\"><b>Successful harvest!</b></span><br>Your pay has increased by $0.02. Your bonus pay is now $0.48.</p>\n            ","response":0,"trial_type":"html-button-response","trial_index":88,"time_elapsed":494060,"internal_node_id":"0.0-4.0-1.40","subject_id":"5c7d8138896a0b00011c2f5d","study_id":"60edd13110225f80f9f3709b","session_id":"6196c4a300ae004bea2de010","condition":"contingent","relevant_dimensions":["antennae","pattern"],"bee_group":{"antennae":"B","wings":"X","pattern":"S","legs":"X"},"bonus":0.7600000000000012},{"rt":2110.2000000001863,"stimulus":"bees-with-color/bee-B2SF.svg","response":1,"trial_type":"image-button-response","trial_index":89,"time_elapsed":496172,"internal_node_id":"0.0-4.0-0.41","subject_id":"5c7d8138896a0b00011c2f5d","study_id":"60edd13110225f80f9f3709b","session_id":"6196c4a300ae004bea2de010","condition":"contingent","relevant_dimensions":["antennae","pattern"],"bee_group":{"antennae":"B","wings":"X","pattern":"S","legs":"X"},"action":"avoid","summary":"good-avoid","bonus":0.7600000000000012},{"rt":693.7999999998137,"stimulus":"\n                    <p><b>Action: <em>avoid</em></b></p>\n                    <p>This is the bee that you just saw.</p>\n                    <img src=\"bees-with-color/bee-B2SF.svg\" width=\"200\">\n                    <p><br>Your bonus pay is unchanged, and remains at $0.48.</p>\n            ","response":0,"trial_type":"html-button-response","trial_index":90,"time_elapsed":496868,"internal_node_id":"0.0-4.0-1.41","subject_id":"5c7d8138896a0b00011c2f5d","study_id":"60edd13110225f80f9f3709b","session_id":"6196c4a300ae004bea2de010","condition":"contingent","relevant_dimensions":["antennae","pattern"],"bee_group":{"antennae":"B","wings":"X","pattern":"S","legs":"X"},"bonus":0.7600000000000012},{"rt":1446.2000000001863,"stimulus":"bees-with-color/bee-A2DM.svg","response":0,"trial_type":"image-button-response","trial_index":91,"time_elapsed":498316,"internal_node_id":"0.0-4.0-0.42","subject_id":"5c7d8138896a0b00011c2f5d","study_id":"60edd13110225f80f9f3709b","session_id":"6196c4a300ae004bea2de010","condition":"contingent","relevant_dimensions":["antennae","pattern"],"bee_group":{"antennae":"B","wings":"X","pattern":"S","legs":"X"},"action":"harvest","summary":"good-harvest","bonus":0.7600000000000012},{"rt":550.3999999999069,"stimulus":"\n                    <p><b>Action: <em>harvest</em></b></p>\n                    <p>This is the bee that you just saw.</p>\n                    <img src=\"bees-with-color/bee-A2DM.svg\" width=\"200\">\n                    <p><span class=\"greenText\"><b>Successful harvest!</b></span><br>Your pay has increased by $0.02. Your bonus pay is now $0.50.</p>\n            ","response":0,"trial_type":"html-button-response","trial_index":92,"time_elapsed":498868,"internal_node_id":"0.0-4.0-1.42","subject_id":"5c7d8138896a0b00011c2f5d","study_id":"60edd13110225f80f9f3709b","session_id":"6196c4a300ae004bea2de010","condition":"contingent","relevant_dimensions":["antennae","pattern"],"bee_group":{"antennae":"B","wings":"X","pattern":"S","legs":"X"},"bonus":0.7600000000000012},{"rt":2278.7000000001863,"stimulus":"bees-with-color/bee-B1DM.svg","response":1,"trial_type":"image-button-response","trial_index":93,"time_elapsed":501148,"internal_node_id":"0.0-4.0-0.43","subject_id":"5c7d8138896a0b00011c2f5d","study_id":"60edd13110225f80f9f3709b","session_id":"6196c4a300ae004bea2de010","condition":"contingent","relevant_dimensions":["antennae","pattern"],"bee_group":{"antennae":"B","wings":"X","pattern":"S","legs":"X"},"action":"avoid","summary":"bad-avoid","bonus":0.7600000000000012},{"rt":606.3999999999069,"stimulus":"\n                    <p><b>Action: <em>avoid</em></b></p>\n                    <p>This is the bee that you just saw.</p>\n                    <img src=\"bees-with-color/bee-B1DM.svg\" width=\"200\">\n                    <p><br>Your bonus pay is unchanged, and remains at $0.50.</p>\n            ","response":0,"trial_type":"html-button-response","trial_index":94,"time_elapsed":501756,"internal_node_id":"0.0-4.0-1.43","subject_id":"5c7d8138896a0b00011c2f5d","study_id":"60edd13110225f80f9f3709b","session_id":"6196c4a300ae004bea2de010","condition":"contingent","relevant_dimensions":["antennae","pattern"],"bee_group":{"antennae":"B","wings":"X","pattern":"S","legs":"X"},"bonus":0.7600000000000012},{"rt":2718.5,"stimulus":"bees-with-color/bee-A2SM.svg","response":0,"trial_type":"image-button-response","trial_index":95,"time_elapsed":504476,"internal_node_id":"0.0-4.0-0.44","subject_id":"5c7d8138896a0b00011c2f5d","study_id":"60edd13110225f80f9f3709b","session_id":"6196c4a300ae004bea2de010","condition":"contingent","relevant_dimensions":["antennae","pattern"],"bee_group":{"antennae":"B","wings":"X","pattern":"S","legs":"X"},"action":"harvest","summary":"good-harvest","bonus":0.7600000000000012},{"rt":710.3999999999069,"stimulus":"\n                    <p><b>Action: <em>harvest</em></b></p>\n                    <p>This is the bee that you just saw.</p>\n                    <img src=\"bees-with-color/bee-A2SM.svg\" width=\"200\">\n                    <p><span class=\"greenText\"><b>Successful harvest!</b></span><br>Your pay has increased by $0.02. Your bonus pay is now $0.52.</p>\n            ","response":0,"trial_type":"html-button-response","trial_index":96,"time_elapsed":505188,"internal_node_id":"0.0-4.0-1.44","subject_id":"5c7d8138896a0b00011c2f5d","study_id":"60edd13110225f80f9f3709b","session_id":"6196c4a300ae004bea2de010","condition":"contingent","relevant_dimensions":["antennae","pattern"],"bee_group":{"antennae":"B","wings":"X","pattern":"S","legs":"X"},"bonus":0.7600000000000012},{"rt":1078.2999999998137,"stimulus":"bees-with-color/bee-B1DF.svg","response":1,"trial_type":"image-button-response","trial_index":97,"time_elapsed":506268,"internal_node_id":"0.0-4.0-0.45","subject_id":"5c7d8138896a0b00011c2f5d","study_id":"60edd13110225f80f9f3709b","session_id":"6196c4a300ae004bea2de010","condition":"contingent","relevant_dimensions":["antennae","pattern"],"bee_group":{"antennae":"B","wings":"X","pattern":"S","legs":"X"},"action":"avoid","summary":"bad-avoid","bonus":0.7600000000000012},{"rt":758.2999999998137,"stimulus":"\n                    <p><b>Action: <em>avoid</em></b></p>\n                    <p>This is the bee that you just saw.</p>\n                    <img src=\"bees-with-color/bee-B1DF.svg\" width=\"200\">\n                    <p><br>Your bonus pay is unchanged, and remains at $0.52.</p>\n            ","response":0,"trial_type":"html-button-response","trial_index":98,"time_elapsed":507028,"internal_node_id":"0.0-4.0-1.45","subject_id":"5c7d8138896a0b00011c2f5d","study_id":"60edd13110225f80f9f3709b","session_id":"6196c4a300ae004bea2de010","condition":"contingent","relevant_dimensions":["antennae","pattern"],"bee_group":{"antennae":"B","wings":"X","pattern":"S","legs":"X"},"bonus":0.7600000000000012},{"rt":1526.4000000003725,"stimulus":"bees-with-color/bee-B2DF.svg","response":1,"trial_type":"image-button-response","trial_index":99,"time_elapsed":508555,"internal_node_id":"0.0-4.0-0.46","subject_id":"5c7d8138896a0b00011c2f5d","study_id":"60edd13110225f80f9f3709b","session_id":"6196c4a300ae004bea2de010","condition":"contingent","relevant_dimensions":["antennae","pattern"],"bee_group":{"antennae":"B","wings":"X","pattern":"S","legs":"X"},"action":"avoid","summary":"bad-avoid","bonus":0.7600000000000012},{"rt":638.7999999998137,"stimulus":"\n                    <p><b>Action: <em>avoid</em></b></p>\n                    <p>This is the bee that you just saw.</p>\n                    <img src=\"bees-with-color/bee-B2DF.svg\" width=\"200\">\n                    <p><br>Your bonus pay is unchanged, and remains at $0.52.</p>\n            ","response":0,"trial_type":"html-button-response","trial_index":100,"time_elapsed":509195,"internal_node_id":"0.0-4.0-1.46","subject_id":"5c7d8138896a0b00011c2f5d","study_id":"60edd13110225f80f9f3709b","session_id":"6196c4a300ae004bea2de010","condition":"contingent","relevant_dimensions":["antennae","pattern"],"bee_group":{"antennae":"B","wings":"X","pattern":"S","legs":"X"},"bonus":0.7600000000000012},{"rt":2054.899999999907,"stimulus":"bees-with-color/bee-B1SM.svg","response":1,"trial_type":"image-button-response","trial_index":101,"time_elapsed":511251,"internal_node_id":"0.0-4.0-0.47","subject_id":"5c7d8138896a0b00011c2f5d","study_id":"60edd13110225f80f9f3709b","session_id":"6196c4a300ae004bea2de010","condition":"contingent","relevant_dimensions":["antennae","pattern"],"bee_group":{"antennae":"B","wings":"X","pattern":"S","legs":"X"},"action":"avoid","summary":"good-avoid","bonus":0.7600000000000012},{"rt":670.6999999997206,"stimulus":"\n                    <p><b>Action: <em>avoid</em></b></p>\n                    <p>This is the bee that you just saw.</p>\n                    <img src=\"bees-with-color/bee-B1SM.svg\" width=\"200\">\n                    <p><br>Your bonus pay is unchanged, and remains at $0.52.</p>\n            ","response":0,"trial_type":"html-button-response","trial_index":102,"time_elapsed":511924,"internal_node_id":"0.0-4.0-1.47","subject_id":"5c7d8138896a0b00011c2f5d","study_id":"60edd13110225f80f9f3709b","session_id":"6196c4a300ae004bea2de010","condition":"contingent","relevant_dimensions":["antennae","pattern"],"bee_group":{"antennae":"B","wings":"X","pattern":"S","legs":"X"},"bonus":0.7600000000000012},{"rt":2654.600000000093,"stimulus":"bees-with-color/bee-B2SF.svg","response":0,"trial_type":"image-button-response","trial_index":103,"time_elapsed":514579,"internal_node_id":"0.0-4.0-0.48","subject_id":"5c7d8138896a0b00011c2f5d","study_id":"60edd13110225f80f9f3709b","session_id":"6196c4a300ae004bea2de010","condition":"contingent","relevant_dimensions":["antennae","pattern"],"bee_group":{"antennae":"B","wings":"X","pattern":"S","legs":"X"},"action":"harvest","summary":"bad-harvest","bonus":0.7600000000000012},{"rt":2110.7000000001863,"stimulus":"\n                    <p><b>Action: <em>harvest</em></b></p>\n                    <p>This is the bee that you just saw.</p>\n                    <img src=\"bees-with-color/bee-B2SF.svg\" width=\"200\">\n                    <p><span class=\"redText\">Bad choice, the bee was angry.</span><br><b>You have been stung!</b><br>Your pay has been decreased by $0.10. Your bonus pay is now $0.42.</p>\n            ","response":0,"trial_type":"html-button-response","trial_index":104,"time_elapsed":516691,"internal_node_id":"0.0-4.0-1.48","subject_id":"5c7d8138896a0b00011c2f5d","study_id":"60edd13110225f80f9f3709b","session_id":"6196c4a300ae004bea2de010","condition":"contingent","relevant_dimensions":["antennae","pattern"],"bee_group":{"antennae":"B","wings":"X","pattern":"S","legs":"X"},"bonus":0.7600000000000012},{"rt":1646.6000000000931,"stimulus":"bees-with-color/bee-A2DM.svg","response":0,"trial_type":"image-button-response","trial_index":105,"time_elapsed":518339,"internal_node_id":"0.0-4.0-0.49","subject_id":"5c7d8138896a0b00011c2f5d","study_id":"60edd13110225f80f9f3709b","session_id":"6196c4a300ae004bea2de010","condition":"contingent","relevant_dimensions":["antennae","pattern"],"bee_group":{"antennae":"B","wings":"X","pattern":"S","legs":"X"},"action":"harvest","summary":"good-harvest","bonus":0.7600000000000012},{"rt":654.6000000000931,"stimulus":"\n                    <p><b>Action: <em>harvest</em></b></p>\n                    <p>This is the bee that you just saw.</p>\n                    <img src=\"bees-with-color/bee-A2DM.svg\" width=\"200\">\n                    <p><span class=\"greenText\"><b>Successful harvest!</b></span><br>Your pay has increased by $0.02. Your bonus pay is now $0.44.</p>\n            ","response":0,"trial_type":"html-button-response","trial_index":106,"time_elapsed":518995,"internal_node_id":"0.0-4.0-1.49","subject_id":"5c7d8138896a0b00011c2f5d","study_id":"60edd13110225f80f9f3709b","session_id":"6196c4a300ae004bea2de010","condition":"contingent","relevant_dimensions":["antennae","pattern"],"bee_group":{"antennae":"B","wings":"X","pattern":"S","legs":"X"},"bonus":0.7600000000000012},{"rt":1318.6000000000931,"stimulus":"bees-with-color/bee-A2DF.svg","response":0,"trial_type":"image-button-response","trial_index":107,"time_elapsed":520315,"internal_node_id":"0.0-4.0-0.50","subject_id":"5c7d8138896a0b00011c2f5d","study_id":"60edd13110225f80f9f3709b","session_id":"6196c4a300ae004bea2de010","condition":"contingent","relevant_dimensions":["antennae","pattern"],"bee_group":{"antennae":"B","wings":"X","pattern":"S","legs":"X"},"action":"harvest","summary":"good-harvest","bonus":0.7600000000000012},{"rt":558.4000000003725,"stimulus":"\n                    <p><b>Action: <em>harvest</em></b></p>\n                    <p>This is the bee that you just saw.</p>\n                    <img src=\"bees-with-color/bee-A2DF.svg\" width=\"200\">\n                    <p><span class=\"greenText\"><b>Successful harvest!</b></span><br>Your pay has increased by $0.02. Your bonus pay is now $0.46.</p>\n            ","response":0,"trial_type":"html-button-response","trial_index":108,"time_elapsed":520875,"internal_node_id":"0.0-4.0-1.50","subject_id":"5c7d8138896a0b00011c2f5d","study_id":"60edd13110225f80f9f3709b","session_id":"6196c4a300ae004bea2de010","condition":"contingent","relevant_dimensions":["antennae","pattern"],"bee_group":{"antennae":"B","wings":"X","pattern":"S","legs":"X"},"bonus":0.7600000000000012},{"rt":1278.7999999998137,"stimulus":"bees-with-color/bee-B1SF.svg","response":1,"trial_type":"image-button-response","trial_index":109,"time_elapsed":522155,"internal_node_id":"0.0-4.0-0.51","subject_id":"5c7d8138896a0b00011c2f5d","study_id":"60edd13110225f80f9f3709b","session_id":"6196c4a300ae004bea2de010","condition":"contingent","relevant_dimensions":["antennae","pattern"],"bee_group":{"antennae":"B","wings":"X","pattern":"S","legs":"X"},"action":"avoid","summary":"good-avoid","bonus":0.7600000000000012},{"rt":654.7000000001863,"stimulus":"\n                    <p><b>Action: <em>avoid</em></b></p>\n                    <p>This is the bee that you just saw.</p>\n                    <img src=\"bees-with-color/bee-B1SF.svg\" width=\"200\">\n                    <p><br>Your bonus pay is unchanged, and remains at $0.46.</p>\n            ","response":0,"trial_type":"html-button-response","trial_index":110,"time_elapsed":522811,"internal_node_id":"0.0-4.0-1.51","subject_id":"5c7d8138896a0b00011c2f5d","study_id":"60edd13110225f80f9f3709b","session_id":"6196c4a300ae004bea2de010","condition":"contingent","relevant_dimensions":["antennae","pattern"],"bee_group":{"antennae":"B","wings":"X","pattern":"S","legs":"X"},"bonus":0.7600000000000012},{"rt":1750.5999999996275,"stimulus":"bees-with-color/bee-A2SM.svg","response":0,"trial_type":"image-button-response","trial_index":111,"time_elapsed":524563,"internal_node_id":"0.0-4.0-0.52","subject_id":"5c7d8138896a0b00011c2f5d","study_id":"60edd13110225f80f9f3709b","session_id":"6196c4a300ae004bea2de010","condition":"contingent","relevant_dimensions":["antennae","pattern"],"bee_group":{"antennae":"B","wings":"X","pattern":"S","legs":"X"},"action":"harvest","summary":"good-harvest","bonus":0.7600000000000012},{"rt":798.5999999996275,"stimulus":"\n                    <p><b>Action: <em>harvest</em></b></p>\n                    <p>This is the bee that you just saw.</p>\n                    <img src=\"bees-with-color/bee-A2SM.svg\" width=\"200\">\n                    <p><span class=\"greenText\"><b>Successful harvest!</b></span><br>Your pay has increased by $0.02. Your bonus pay is now $0.48.</p>\n            ","response":0,"trial_type":"html-button-response","trial_index":112,"time_elapsed":525363,"internal_node_id":"0.0-4.0-1.52","subject_id":"5c7d8138896a0b00011c2f5d","study_id":"60edd13110225f80f9f3709b","session_id":"6196c4a300ae004bea2de010","condition":"contingent","relevant_dimensions":["antennae","pattern"],"bee_group":{"antennae":"B","wings":"X","pattern":"S","legs":"X"},"bonus":0.7600000000000012},{"rt":2190.2000000001863,"stimulus":"bees-with-color/bee-B2DM.svg","response":0,"trial_type":"image-button-response","trial_index":113,"time_elapsed":527555,"internal_node_id":"0.0-4.0-0.53","subject_id":"5c7d8138896a0b00011c2f5d","study_id":"60edd13110225f80f9f3709b","session_id":"6196c4a300ae004bea2de010","condition":"contingent","relevant_dimensions":["antennae","pattern"],"bee_group":{"antennae":"B","wings":"X","pattern":"S","legs":"X"},"action":"harvest","summary":"good-harvest","bonus":0.7600000000000012},{"rt":558.5999999996275,"stimulus":"\n                    <p><b>Action: <em>harvest</em></b></p>\n                    <p>This is the bee that you just saw.</p>\n                    <img src=\"bees-with-color/bee-B2DM.svg\" width=\"200\">\n                    <p><span class=\"greenText\"><b>Successful harvest!</b></span><br>Your pay has increased by $0.02. Your bonus pay is now $0.50.</p>\n            ","response":0,"trial_type":"html-button-response","trial_index":114,"time_elapsed":528115,"internal_node_id":"0.0-4.0-1.53","subject_id":"5c7d8138896a0b00011c2f5d","study_id":"60edd13110225f80f9f3709b","session_id":"6196c4a300ae004bea2de010","condition":"contingent","relevant_dimensions":["antennae","pattern"],"bee_group":{"antennae":"B","wings":"X","pattern":"S","legs":"X"},"bonus":0.7600000000000012},{"rt":1782.6000000000931,"stimulus":"bees-with-color/bee-A1DM.svg","response":0,"trial_type":"image-button-response","trial_index":115,"time_elapsed":529899,"internal_node_id":"0.0-4.0-0.54","subject_id":"5c7d8138896a0b00011c2f5d","study_id":"60edd13110225f80f9f3709b","session_id":"6196c4a300ae004bea2de010","condition":"contingent","relevant_dimensions":["antennae","pattern"],"bee_group":{"antennae":"B","wings":"X","pattern":"S","legs":"X"},"action":"harvest","summary":"good-harvest","bonus":0.7600000000000012},{"rt":566.5,"stimulus":"\n                    <p><b>Action: <em>harvest</em></b></p>\n                    <p>This is the bee that you just saw.</p>\n                    <img src=\"bees-with-color/bee-A1DM.svg\" width=\"200\">\n                    <p><span class=\"greenText\"><b>Successful harvest!</b></span><br>Your pay has increased by $0.02. Your bonus pay is now $0.52.</p>\n            ","response":0,"trial_type":"html-button-response","trial_index":116,"time_elapsed":530467,"internal_node_id":"0.0-4.0-1.54","subject_id":"5c7d8138896a0b00011c2f5d","study_id":"60edd13110225f80f9f3709b","session_id":"6196c4a300ae004bea2de010","condition":"contingent","relevant_dimensions":["antennae","pattern"],"bee_group":{"antennae":"B","wings":"X","pattern":"S","legs":"X"},"bonus":0.7600000000000012},{"rt":4422.700000000186,"stimulus":"bees-with-color/bee-A1SF.svg","response":1,"trial_type":"image-button-response","trial_index":117,"time_elapsed":534891,"internal_node_id":"0.0-4.0-0.55","subject_id":"5c7d8138896a0b00011c2f5d","study_id":"60edd13110225f80f9f3709b","session_id":"6196c4a300ae004bea2de010","condition":"contingent","relevant_dimensions":["antennae","pattern"],"bee_group":{"antennae":"B","wings":"X","pattern":"S","legs":"X"},"action":"avoid","summary":"bad-avoid","bonus":0.7600000000000012},{"rt":710.3999999999069,"stimulus":"\n                    <p><b>Action: <em>avoid</em></b></p>\n                    <p>This is the bee that you just saw.</p>\n                    <img src=\"bees-with-color/bee-A1SF.svg\" width=\"200\">\n                    <p><br>Your bonus pay is unchanged, and remains at $0.52.</p>\n            ","response":0,"trial_type":"html-button-response","trial_index":118,"time_elapsed":535603,"internal_node_id":"0.0-4.0-1.55","subject_id":"5c7d8138896a0b00011c2f5d","study_id":"60edd13110225f80f9f3709b","session_id":"6196c4a300ae004bea2de010","condition":"contingent","relevant_dimensions":["antennae","pattern"],"bee_group":{"antennae":"B","wings":"X","pattern":"S","legs":"X"},"bonus":0.7600000000000012},{"rt":3582.5,"stimulus":"bees-with-color/bee-B2SM.svg","response":0,"trial_type":"image-button-response","trial_index":119,"time_elapsed":539187,"internal_node_id":"0.0-4.0-0.56","subject_id":"5c7d8138896a0b00011c2f5d","study_id":"60edd13110225f80f9f3709b","session_id":"6196c4a300ae004bea2de010","condition":"contingent","relevant_dimensions":["antennae","pattern"],"bee_group":{"antennae":"B","wings":"X","pattern":"S","legs":"X"},"action":"harvest","summary":"bad-harvest","bonus":0.7600000000000012},{"rt":814.5,"stimulus":"\n                    <p><b>Action: <em>harvest</em></b></p>\n                    <p>This is the bee that you just saw.</p>\n                    <img src=\"bees-with-color/bee-B2SM.svg\" width=\"200\">\n                    <p><span class=\"redText\">Bad choice, the bee was angry.</span><br><b>You have been stung!</b><br>Your pay has been decreased by $0.10. Your bonus pay is now $0.42.</p>\n            ","response":0,"trial_type":"html-button-response","trial_index":120,"time_elapsed":540005,"internal_node_id":"0.0-4.0-1.56","subject_id":"5c7d8138896a0b00011c2f5d","study_id":"60edd13110225f80f9f3709b","session_id":"6196c4a300ae004bea2de010","condition":"contingent","relevant_dimensions":["antennae","pattern"],"bee_group":{"antennae":"B","wings":"X","pattern":"S","legs":"X"},"bonus":0.7600000000000012},{"rt":2366.399999999907,"stimulus":"bees-with-color/bee-B1DF.svg","response":0,"trial_type":"image-button-response","trial_index":121,"time_elapsed":542373,"internal_node_id":"0.0-4.0-0.57","subject_id":"5c7d8138896a0b00011c2f5d","study_id":"60edd13110225f80f9f3709b","session_id":"6196c4a300ae004bea2de010","condition":"contingent","relevant_dimensions":["antennae","pattern"],"bee_group":{"antennae":"B","wings":"X","pattern":"S","legs":"X"},"action":"harvest","summary":"good-harvest","bonus":0.7600000000000012},{"rt":494.39999999990687,"stimulus":"\n                    <p><b>Action: <em>harvest</em></b></p>\n                    <p>This is the bee that you just saw.</p>\n                    <img src=\"bees-with-color/bee-B1DF.svg\" width=\"200\">\n                    <p><span class=\"greenText\"><b>Successful harvest!</b></span><br>Your pay has increased by $0.02. Your bonus pay is now $0.44.</p>\n            ","response":0,"trial_type":"html-button-response","trial_index":122,"time_elapsed":542869,"internal_node_id":"0.0-4.0-1.57","subject_id":"5c7d8138896a0b00011c2f5d","study_id":"60edd13110225f80f9f3709b","session_id":"6196c4a300ae004bea2de010","condition":"contingent","relevant_dimensions":["antennae","pattern"],"bee_group":{"antennae":"B","wings":"X","pattern":"S","legs":"X"},"bonus":0.7600000000000012},{"rt":2214.6999999997206,"stimulus":"bees-with-color/bee-A1DF.svg","response":0,"trial_type":"image-button-response","trial_index":123,"time_elapsed":545085,"internal_node_id":"0.0-4.0-0.58","subject_id":"5c7d8138896a0b00011c2f5d","study_id":"60edd13110225f80f9f3709b","session_id":"6196c4a300ae004bea2de010","condition":"contingent","relevant_dimensions":["antennae","pattern"],"bee_group":{"antennae":"B","wings":"X","pattern":"S","legs":"X"},"action":"harvest","summary":"good-harvest","bonus":0.7600000000000012},{"rt":662.3000000002794,"stimulus":"\n                    <p><b>Action: <em>harvest</em></b></p>\n                    <p>This is the bee that you just saw.</p>\n                    <img src=\"bees-with-color/bee-A1DF.svg\" width=\"200\">\n                    <p><span class=\"greenText\"><b>Successful harvest!</b></span><br>Your pay has increased by $0.02. Your bonus pay is now $0.46.</p>\n            ","response":0,"trial_type":"html-button-response","trial_index":124,"time_elapsed":545749,"internal_node_id":"0.0-4.0-1.58","subject_id":"5c7d8138896a0b00011c2f5d","study_id":"60edd13110225f80f9f3709b","session_id":"6196c4a300ae004bea2de010","condition":"contingent","relevant_dimensions":["antennae","pattern"],"bee_group":{"antennae":"B","wings":"X","pattern":"S","legs":"X"},"bonus":0.7600000000000012},{"rt":1790.6000000000931,"stimulus":"bees-with-color/bee-B1DM.svg","response":0,"trial_type":"image-button-response","trial_index":125,"time_elapsed":547541,"internal_node_id":"0.0-4.0-0.59","subject_id":"5c7d8138896a0b00011c2f5d","study_id":"60edd13110225f80f9f3709b","session_id":"6196c4a300ae004bea2de010","condition":"contingent","relevant_dimensions":["antennae","pattern"],"bee_group":{"antennae":"B","wings":"X","pattern":"S","legs":"X"},"action":"harvest","summary":"good-harvest","bonus":0.7600000000000012},{"rt":542.5,"stimulus":"\n                    <p><b>Action: <em>harvest</em></b></p>\n                    <p>This is the bee that you just saw.</p>\n                    <img src=\"bees-with-color/bee-B1DM.svg\" width=\"200\">\n                    <p><span class=\"greenText\"><b>Successful harvest!</b></span><br>Your pay has increased by $0.02. Your bonus pay is now $0.48.</p>\n            ","response":0,"trial_type":"html-button-response","trial_index":126,"time_elapsed":548085,"internal_node_id":"0.0-4.0-1.59","subject_id":"5c7d8138896a0b00011c2f5d","study_id":"60edd13110225f80f9f3709b","session_id":"6196c4a300ae004bea2de010","condition":"contingent","relevant_dimensions":["antennae","pattern"],"bee_group":{"antennae":"B","wings":"X","pattern":"S","legs":"X"},"bonus":0.7600000000000012},{"rt":4342.5999999996275,"stimulus":"bees-with-color/bee-B1SM.svg","response":1,"trial_type":"image-button-response","trial_index":127,"time_elapsed":552429,"internal_node_id":"0.0-4.0-0.60","subject_id":"5c7d8138896a0b00011c2f5d","study_id":"60edd13110225f80f9f3709b","session_id":"6196c4a300ae004bea2de010","condition":"contingent","relevant_dimensions":["antennae","pattern"],"bee_group":{"antennae":"B","wings":"X","pattern":"S","legs":"X"},"action":"avoid","summary":"good-avoid","bonus":0.7600000000000012},{"rt":694.5999999996275,"stimulus":"\n                    <p><b>Action: <em>avoid</em></b></p>\n                    <p>This is the bee that you just saw.</p>\n                    <img src=\"bees-with-color/bee-B1SM.svg\" width=\"200\">\n                    <p><br>Your bonus pay is unchanged, and remains at $0.48.</p>\n            ","response":0,"trial_type":"html-button-response","trial_index":128,"time_elapsed":553125,"internal_node_id":"0.0-4.0-1.60","subject_id":"5c7d8138896a0b00011c2f5d","study_id":"60edd13110225f80f9f3709b","session_id":"6196c4a300ae004bea2de010","condition":"contingent","relevant_dimensions":["antennae","pattern"],"bee_group":{"antennae":"B","wings":"X","pattern":"S","legs":"X"},"bonus":0.7600000000000012},{"rt":2630.100000000093,"stimulus":"bees-with-color/bee-A1SM.svg","response":0,"trial_type":"image-button-response","trial_index":129,"time_elapsed":555757,"internal_node_id":"0.0-4.0-0.61","subject_id":"5c7d8138896a0b00011c2f5d","study_id":"60edd13110225f80f9f3709b","session_id":"6196c4a300ae004bea2de010","condition":"contingent","relevant_dimensions":["antennae","pattern"],"bee_group":{"antennae":"B","wings":"X","pattern":"S","legs":"X"},"action":"harvest","summary":"good-harvest","bonus":0.7600000000000012},{"rt":710.3999999999069,"stimulus":"\n                    <p><b>Action: <em>harvest</em></b></p>\n                    <p>This is the bee that you just saw.</p>\n                    <img src=\"bees-with-color/bee-A1SM.svg\" width=\"200\">\n                    <p><span class=\"greenText\"><b>Successful harvest!</b></span><br>Your pay has increased by $0.02. Your bonus pay is now $0.50.</p>\n            ","response":0,"trial_type":"html-button-response","trial_index":130,"time_elapsed":556469,"internal_node_id":"0.0-4.0-1.61","subject_id":"5c7d8138896a0b00011c2f5d","study_id":"60edd13110225f80f9f3709b","session_id":"6196c4a300ae004bea2de010","condition":"contingent","relevant_dimensions":["antennae","pattern"],"bee_group":{"antennae":"B","wings":"X","pattern":"S","legs":"X"},"bonus":0.7600000000000012},{"rt":1446.8000000002794,"stimulus":"bees-with-color/bee-B2DF.svg","response":0,"trial_type":"image-button-response","trial_index":131,"time_elapsed":557917,"internal_node_id":"0.0-4.0-0.62","subject_id":"5c7d8138896a0b00011c2f5d","study_id":"60edd13110225f80f9f3709b","session_id":"6196c4a300ae004bea2de010","condition":"contingent","relevant_dimensions":["antennae","pattern"],"bee_group":{"antennae":"B","wings":"X","pattern":"S","legs":"X"},"action":"harvest","summary":"good-harvest","bonus":0.7600000000000012},{"rt":630.2999999998137,"stimulus":"\n                    <p><b>Action: <em>harvest</em></b></p>\n                    <p>This is the bee that you just saw.</p>\n                    <img src=\"bees-with-color/bee-B2DF.svg\" width=\"200\">\n                    <p><span class=\"greenText\"><b>Successful harvest!</b></span><br>Your pay has increased by $0.02. Your bonus pay is now $0.52.</p>\n            ","response":0,"trial_type":"html-button-response","trial_index":132,"time_elapsed":558549,"internal_node_id":"0.0-4.0-1.62","subject_id":"5c7d8138896a0b00011c2f5d","study_id":"60edd13110225f80f9f3709b","session_id":"6196c4a300ae004bea2de010","condition":"contingent","relevant_dimensions":["antennae","pattern"],"bee_group":{"antennae":"B","wings":"X","pattern":"S","legs":"X"},"bonus":0.7600000000000012},{"rt":1846.5,"stimulus":"bees-with-color/bee-A2SF.svg","response":0,"trial_type":"image-button-response","trial_index":133,"time_elapsed":560397,"internal_node_id":"0.0-4.0-0.63","subject_id":"5c7d8138896a0b00011c2f5d","study_id":"60edd13110225f80f9f3709b","session_id":"6196c4a300ae004bea2de010","condition":"contingent","relevant_dimensions":["antennae","pattern"],"bee_group":{"antennae":"B","wings":"X","pattern":"S","legs":"X"},"action":"harvest","summary":"good-harvest","bonus":0.7600000000000012},{"rt":638.2999999998137,"stimulus":"\n                    <p><b>Action: <em>harvest</em></b></p>\n                    <p>This is the bee that you just saw.</p>\n                    <img src=\"bees-with-color/bee-A2SF.svg\" width=\"200\">\n                    <p><span class=\"greenText\"><b>Successful harvest!</b></span><br>Your pay has increased by $0.02. Your bonus pay is now $0.54.</p>\n            ","response":0,"trial_type":"html-button-response","trial_index":134,"time_elapsed":561037,"internal_node_id":"0.0-4.0-1.63","subject_id":"5c7d8138896a0b00011c2f5d","study_id":"60edd13110225f80f9f3709b","session_id":"6196c4a300ae004bea2de010","condition":"contingent","relevant_dimensions":["antennae","pattern"],"bee_group":{"antennae":"B","wings":"X","pattern":"S","legs":"X"},"bonus":0.7600000000000012},{"rt":7883.300000000279,"stimulus":"You have completed the first part of this experiment.<br><br>You will now begin a shorter second part, in which you will receive no feedback.<br>The same rules regarding bonus pay apply.<br><br>Press any key to begin.","response":" ","trial_type":"html-keyboard-response","trial_index":135,"time_elapsed":568921,"internal_node_id":"0.0-5.0","subject_id":"5c7d8138896a0b00011c2f5d","study_id":"60edd13110225f80f9f3709b","session_id":"6196c4a300ae004bea2de010","condition":"contingent","relevant_dimensions":["antennae","pattern"],"bee_group":{"antennae":"B","wings":"X","pattern":"S","legs":"X"},"bonus":0.7600000000000012},{"rt":4587.199999999721,"stimulus":"bees-with-color/bee-A1DF.svg","response":0,"trial_type":"image-button-response","trial_index":136,"time_elapsed":573517,"internal_node_id":"0.0-6.0-0.0","subject_id":"5c7d8138896a0b00011c2f5d","study_id":"60edd13110225f80f9f3709b","session_id":"6196c4a300ae004bea2de010","condition":"contingent","relevant_dimensions":["antennae","pattern"],"bee_group":{"antennae":"B","wings":"X","pattern":"S","legs":"X"},"bonus":0.7600000000000012},{"rt":3693.2000000001863,"stimulus":"bees-with-color/bee-B2DM.svg","response":0,"trial_type":"image-button-response","trial_index":137,"time_elapsed":577212,"internal_node_id":"0.0-6.0-0.1","subject_id":"5c7d8138896a0b00011c2f5d","study_id":"60edd13110225f80f9f3709b","session_id":"6196c4a300ae004bea2de010","condition":"contingent","relevant_dimensions":["antennae","pattern"],"bee_group":{"antennae":"B","wings":"X","pattern":"S","legs":"X"},"bonus":0.7600000000000012},{"rt":2469.600000000093,"stimulus":"bees-with-color/bee-A1SM.svg","response":0,"trial_type":"image-button-response","trial_index":138,"time_elapsed":579684,"internal_node_id":"0.0-6.0-0.2","subject_id":"5c7d8138896a0b00011c2f5d","study_id":"60edd13110225f80f9f3709b","session_id":"6196c4a300ae004bea2de010","condition":"contingent","relevant_dimensions":["antennae","pattern"],"bee_group":{"antennae":"B","wings":"X","pattern":"S","legs":"X"},"bonus":0.7600000000000012},{"rt":1645.8999999999069,"stimulus":"bees-with-color/bee-B1DF.svg","response":0,"trial_type":"image-button-response","trial_index":139,"time_elapsed":581332,"internal_node_id":"0.0-6.0-0.3","subject_id":"5c7d8138896a0b00011c2f5d","study_id":"60edd13110225f80f9f3709b","session_id":"6196c4a300ae004bea2de010","condition":"contingent","relevant_dimensions":["antennae","pattern"],"bee_group":{"antennae":"B","wings":"X","pattern":"S","legs":"X"},"bonus":0.7600000000000012},{"rt":6813.699999999721,"stimulus":"bees-with-color/bee-A2SF.svg","response":0,"trial_type":"image-button-response","trial_index":140,"time_elapsed":588148,"internal_node_id":"0.0-6.0-0.4","subject_id":"5c7d8138896a0b00011c2f5d","study_id":"60edd13110225f80f9f3709b","session_id":"6196c4a300ae004bea2de010","condition":"contingent","relevant_dimensions":["antennae","pattern"],"bee_group":{"antennae":"B","wings":"X","pattern":"S","legs":"X"},"bonus":0.7600000000000012},{"rt":1173.5,"stimulus":"bees-with-color/bee-B1DM.svg","response":0,"trial_type":"image-button-response","trial_index":141,"time_elapsed":589324,"internal_node_id":"0.0-6.0-0.5","subject_id":"5c7d8138896a0b00011c2f5d","study_id":"60edd13110225f80f9f3709b","session_id":"6196c4a300ae004bea2de010","condition":"contingent","relevant_dimensions":["antennae","pattern"],"bee_group":{"antennae":"B","wings":"X","pattern":"S","legs":"X"},"bonus":0.7600000000000012},{"rt":1733.9000000003725,"stimulus":"bees-with-color/bee-B2SF.svg","response":1,"trial_type":"image-button-response","trial_index":142,"time_elapsed":591060,"internal_node_id":"0.0-6.0-0.6","subject_id":"5c7d8138896a0b00011c2f5d","study_id":"60edd13110225f80f9f3709b","session_id":"6196c4a300ae004bea2de010","condition":"contingent","relevant_dimensions":["antennae","pattern"],"bee_group":{"antennae":"B","wings":"X","pattern":"S","legs":"X"},"bonus":0.7600000000000012},{"rt":1766.2000000001863,"stimulus":"bees-with-color/bee-B1SF.svg","response":1,"trial_type":"image-button-response","trial_index":143,"time_elapsed":592828,"internal_node_id":"0.0-6.0-0.7","subject_id":"5c7d8138896a0b00011c2f5d","study_id":"60edd13110225f80f9f3709b","session_id":"6196c4a300ae004bea2de010","condition":"contingent","relevant_dimensions":["antennae","pattern"],"bee_group":{"antennae":"B","wings":"X","pattern":"S","legs":"X"},"bonus":0.7600000000000012},{"rt":1094.3000000002794,"stimulus":"bees-with-color/bee-B2DF.svg","response":0,"trial_type":"image-button-response","trial_index":144,"time_elapsed":593924,"internal_node_id":"0.0-6.0-0.8","subject_id":"5c7d8138896a0b00011c2f5d","study_id":"60edd13110225f80f9f3709b","session_id":"6196c4a300ae004bea2de010","condition":"contingent","relevant_dimensions":["antennae","pattern"],"bee_group":{"antennae":"B","wings":"X","pattern":"S","legs":"X"},"bonus":0.7600000000000012},{"rt":1766.2000000001863,"stimulus":"bees-with-color/bee-B1SM.svg","response":0,"trial_type":"image-button-response","trial_index":145,"time_elapsed":595692,"internal_node_id":"0.0-6.0-0.9","subject_id":"5c7d8138896a0b00011c2f5d","study_id":"60edd13110225f80f9f3709b","session_id":"6196c4a300ae004bea2de010","condition":"contingent","relevant_dimensions":["antennae","pattern"],"bee_group":{"antennae":"B","wings":"X","pattern":"S","legs":"X"},"bonus":0.7600000000000012},{"rt":4254.200000000186,"stimulus":"bees-with-color/bee-A1SF.svg","response":1,"trial_type":"image-button-response","trial_index":146,"time_elapsed":599948,"internal_node_id":"0.0-6.0-0.10","subject_id":"5c7d8138896a0b00011c2f5d","study_id":"60edd13110225f80f9f3709b","session_id":"6196c4a300ae004bea2de010","condition":"contingent","relevant_dimensions":["antennae","pattern"],"bee_group":{"antennae":"B","wings":"X","pattern":"S","legs":"X"},"bonus":0.7600000000000012},{"rt":1037.6999999997206,"stimulus":"bees-with-color/bee-A2SM.svg","response":0,"trial_type":"image-button-response","trial_index":147,"time_elapsed":600989,"internal_node_id":"0.0-6.0-0.11","subject_id":"5c7d8138896a0b00011c2f5d","study_id":"60edd13110225f80f9f3709b","session_id":"6196c4a300ae004bea2de010","condition":"contingent","relevant_dimensions":["antennae","pattern"],"bee_group":{"antennae":"B","wings":"X","pattern":"S","legs":"X"},"bonus":0.7600000000000012},{"rt":2958.2999999998137,"stimulus":"bees-with-color/bee-B2SM.svg","response":0,"trial_type":"image-button-response","trial_index":148,"time_elapsed":603949,"internal_node_id":"0.0-6.0-0.12","subject_id":"5c7d8138896a0b00011c2f5d","study_id":"60edd13110225f80f9f3709b","session_id":"6196c4a300ae004bea2de010","condition":"contingent","relevant_dimensions":["antennae","pattern"],"bee_group":{"antennae":"B","wings":"X","pattern":"S","legs":"X"},"bonus":0.7600000000000012},{"rt":1237.6999999997206,"stimulus":"bees-with-color/bee-A2DM.svg","response":0,"trial_type":"image-button-response","trial_index":149,"time_elapsed":605189,"internal_node_id":"0.0-6.0-0.13","subject_id":"5c7d8138896a0b00011c2f5d","study_id":"60edd13110225f80f9f3709b","session_id":"6196c4a300ae004bea2de010","condition":"contingent","relevant_dimensions":["antennae","pattern"],"bee_group":{"antennae":"B","wings":"X","pattern":"S","legs":"X"},"bonus":0.7600000000000012},{"rt":1350.0999999996275,"stimulus":"bees-with-color/bee-A2DF.svg","response":0,"trial_type":"image-button-response","trial_index":150,"time_elapsed":606541,"internal_node_id":"0.0-6.0-0.14","subject_id":"5c7d8138896a0b00011c2f5d","study_id":"60edd13110225f80f9f3709b","session_id":"6196c4a300ae004bea2de010","condition":"contingent","relevant_dimensions":["antennae","pattern"],"bee_group":{"antennae":"B","wings":"X","pattern":"S","legs":"X"},"bonus":0.7600000000000012},{"rt":3174.2000000001863,"stimulus":"bees-with-color/bee-A1DM.svg","response":0,"trial_type":"image-button-response","trial_index":151,"time_elapsed":609717,"internal_node_id":"0.0-6.0-0.15","subject_id":"5c7d8138896a0b00011c2f5d","study_id":"60edd13110225f80f9f3709b","session_id":"6196c4a300ae004bea2de010","condition":"contingent","relevant_dimensions":["antennae","pattern"],"bee_group":{"antennae":"B","wings":"X","pattern":"S","legs":"X"},"bonus":0.7600000000000012},{"rt":1766,"stimulus":"bees-with-color/bee-B2SF.svg","response":1,"trial_type":"image-button-response","trial_index":152,"time_elapsed":611484,"internal_node_id":"0.0-6.0-0.16","subject_id":"5c7d8138896a0b00011c2f5d","study_id":"60edd13110225f80f9f3709b","session_id":"6196c4a300ae004bea2de010","condition":"contingent","relevant_dimensions":["antennae","pattern"],"bee_group":{"antennae":"B","wings":"X","pattern":"S","legs":"X"},"bonus":0.7600000000000012},{"rt":2102.3000000002794,"stimulus":"bees-with-color/bee-A2DM.svg","response":0,"trial_type":"image-button-response","trial_index":153,"time_elapsed":613588,"internal_node_id":"0.0-6.0-0.17","subject_id":"5c7d8138896a0b00011c2f5d","study_id":"60edd13110225f80f9f3709b","session_id":"6196c4a300ae004bea2de010","condition":"contingent","relevant_dimensions":["antennae","pattern"],"bee_group":{"antennae":"B","wings":"X","pattern":"S","legs":"X"},"bonus":0.7600000000000012},{"rt":1958.2000000001863,"stimulus":"bees-with-color/bee-A1DM.svg","response":0,"trial_type":"image-button-response","trial_index":154,"time_elapsed":615548,"internal_node_id":"0.0-6.0-0.18","subject_id":"5c7d8138896a0b00011c2f5d","study_id":"60edd13110225f80f9f3709b","session_id":"6196c4a300ae004bea2de010","condition":"contingent","relevant_dimensions":["antennae","pattern"],"bee_group":{"antennae":"B","wings":"X","pattern":"S","legs":"X"},"bonus":0.7600000000000012},{"rt":1862.6999999997206,"stimulus":"bees-with-color/bee-B1DF.svg","response":0,"trial_type":"image-button-response","trial_index":155,"time_elapsed":617413,"internal_node_id":"0.0-6.0-0.19","subject_id":"5c7d8138896a0b00011c2f5d","study_id":"60edd13110225f80f9f3709b","session_id":"6196c4a300ae004bea2de010","condition":"contingent","relevant_dimensions":["antennae","pattern"],"bee_group":{"antennae":"B","wings":"X","pattern":"S","legs":"X"},"bonus":0.7600000000000012},{"rt":1358,"stimulus":"bees-with-color/bee-B1DM.svg","response":0,"trial_type":"image-button-response","trial_index":156,"time_elapsed":618772,"internal_node_id":"0.0-6.0-0.20","subject_id":"5c7d8138896a0b00011c2f5d","study_id":"60edd13110225f80f9f3709b","session_id":"6196c4a300ae004bea2de010","condition":"contingent","relevant_dimensions":["antennae","pattern"],"bee_group":{"antennae":"B","wings":"X","pattern":"S","legs":"X"},"bonus":0.7600000000000012},{"rt":2190.399999999907,"stimulus":"bees-with-color/bee-B1SM.svg","response":1,"trial_type":"image-button-response","trial_index":157,"time_elapsed":620964,"internal_node_id":"0.0-6.0-0.21","subject_id":"5c7d8138896a0b00011c2f5d","study_id":"60edd13110225f80f9f3709b","session_id":"6196c4a300ae004bea2de010","condition":"contingent","relevant_dimensions":["antennae","pattern"],"bee_group":{"antennae":"B","wings":"X","pattern":"S","legs":"X"},"bonus":0.7600000000000012},{"rt":1238.1999999997206,"stimulus":"bees-with-color/bee-A1DF.svg","response":0,"trial_type":"image-button-response","trial_index":158,"time_elapsed":622204,"internal_node_id":"0.0-6.0-0.22","subject_id":"5c7d8138896a0b00011c2f5d","study_id":"60edd13110225f80f9f3709b","session_id":"6196c4a300ae004bea2de010","condition":"contingent","relevant_dimensions":["antennae","pattern"],"bee_group":{"antennae":"B","wings":"X","pattern":"S","legs":"X"},"bonus":0.7600000000000012},{"rt":4110.299999999814,"stimulus":"bees-with-color/bee-A2SF.svg","response":0,"trial_type":"image-button-response","trial_index":159,"time_elapsed":626316,"internal_node_id":"0.0-6.0-0.23","subject_id":"5c7d8138896a0b00011c2f5d","study_id":"60edd13110225f80f9f3709b","session_id":"6196c4a300ae004bea2de010","condition":"contingent","relevant_dimensions":["antennae","pattern"],"bee_group":{"antennae":"B","wings":"X","pattern":"S","legs":"X"},"bonus":0.7600000000000012},{"rt":1590,"stimulus":"bees-with-color/bee-B2DM.svg","response":0,"trial_type":"image-button-response","trial_index":160,"time_elapsed":627908,"internal_node_id":"0.0-6.0-0.24","subject_id":"5c7d8138896a0b00011c2f5d","study_id":"60edd13110225f80f9f3709b","session_id":"6196c4a300ae004bea2de010","condition":"contingent","relevant_dimensions":["antennae","pattern"],"bee_group":{"antennae":"B","wings":"X","pattern":"S","legs":"X"},"bonus":0.7600000000000012},{"rt":2686.3000000002794,"stimulus":"bees-with-color/bee-B2SM.svg","response":1,"trial_type":"image-button-response","trial_index":161,"time_elapsed":630596,"internal_node_id":"0.0-6.0-0.25","subject_id":"5c7d8138896a0b0