[{"success":true,"trial_type":"fullscreen","trial_index":0,"time_elapsed":21925,"internal_node_id":"0.0-0.0","subject_id":"60ba349d21c7acbaaabc36dd","study_id":"6197b3f67c2b5cd3b6d9596a","session_id":"619be3210778af80abd78ec0","condition":"contingent","relevant_dimensions":["antennae","legs"],"bee_group":{"antennae":"B","wings":"X","pattern":"X","legs":"F"},"bonus":0.8200000000000006},{"success":true,"timeout":false,"failed_images":[],"failed_audio":[],"failed_video":[],"trial_type":"preload","trial_index":1,"time_elapsed":23939,"internal_node_id":"0.0-1.0","subject_id":"60ba349d21c7acbaaabc36dd","study_id":"6197b3f67c2b5cd3b6d9596a","session_id":"619be3210778af80abd78ec0","condition":"contingent","relevant_dimensions":["antennae","legs"],"bee_group":{"antennae":"B","wings":"X","pattern":"X","legs":"F"},"bonus":0.8200000000000006},{"rt":1580.6999999284744,"stimulus":"Welcome! Press any key to begin.","response":"arrowright","trial_type":"html-keyboard-response","trial_index":2,"time_elapsed":25521,"internal_node_id":"0.0-2.0","subject_id":"60ba349d21c7acbaaabc36dd","study_id":"6197b3f67c2b5cd3b6d9596a","session_id":"619be3210778af80abd78ec0","condition":"contingent","relevant_dimensions":["antennae","legs"],"bee_group":{"antennae":"B","wings":"X","pattern":"X","legs":"F"},"bonus":0.8200000000000006},{"view_history":[{"page_index":0,"viewing_time":5039.900000095367},{"page_index":1,"viewing_time":17853.699999928474},{"page_index":2,"viewing_time":13099.700000047684},{"page_index":3,"viewing_time":12500.699999928474},{"page_index":4,"viewing_time":9211.700000047684},{"page_index":5,"viewing_time":8609.799999952316},{"page_index":6,"viewing_time":8938.900000095367},{"page_index":7,"viewing_time":5009},{"page_index":8,"viewing_time":5435},{"page_index":9,"viewing_time":2560},{"page_index":10,"viewing_time":3325.1999999284744},{"page_index":11,"viewing_time":10459},{"page_index":12,"viewing_time":4506.800000071526},{"page_index":13,"viewing_time":2340.0999999046326},{"page_index":14,"viewing_time":2869.7000000476837}],"rt":111759.5,"trial_type":"instructions","trial_index":3,"time_elapsed":137281,"internal_node_id":"0.0-3.0-0.0","subject_id":"60ba349d21c7acbaaabc36dd","study_id":"6197b3f67c2b5cd3b6d9596a","session_id":"619be3210778af80abd78ec0","condition":"contingent","relevant_dimensions":["antennae","legs"],"bee_group":{"antennae":"B","wings":"X","pattern":"X","legs":"F"},"bonus":0.8200000000000006},{"rt":16388.399999976158,"response":{"Q0":["Two or six legs","Stripes or spots on body","Antennae or no antennae"]},"question_order":[0],"trial_type":"survey-multi-select","trial_index":4,"time_elapsed":153674,"internal_node_id":"0.0-3.0-1.0","subject_id":"60ba349d21c7acbaaabc36dd","study_id":"6197b3f67c2b5cd3b6d9596a","session_id":"619be3210778af80abd78ec0","condition":"contingent","relevant_dimensions":["antennae","legs"],"bee_group":{"antennae":"B","wings":"X","pattern":"X","legs":"F"},"correct":false,"bonus":0.8200000000000006},{"rt":27058.599999904633,"response":{"Q1":"No.","Q2":"Based on the four features of the bee.","Q3":"You do not learn if it was friendly or dangerous, and do not alter your bonus."},"question_order":[0,1,2],"trial_type":"survey-multi-choice","trial_index":5,"time_elapsed":180734,"internal_node_id":"0.0-3.0-2.0","subject_id":"60ba349d21c7acbaaabc36dd","study_id":"6197b3f67c2b5cd3b6d9596a","session_id":"619be3210778af80abd78ec0","condition":"contingent","relevant_dimensions":["antennae","legs"],"bee_group":{"antennae":"B","wings":"X","pattern":"X","legs":"F"},"correct":true,"bonus":0.8200000000000006},{"rt":2818.2000000476837,"stimulus":"<p>You did not answer all comprehension questions correctly.<br>Press <b>continue</b> to review the instructions again.</p>","response":0,"trial_type":"html-button-response","trial_index":6,"time_elapsed":183554,"internal_node_id":"0.0-3.0-3.0","subject_id":"60ba349d21c7acbaaabc36dd","study_id":"6197b3f67c2b5cd3b6d9596a","session_id":"619be3210778af80abd78ec0","condition":"contingent","relevant_dimensions":["antennae","legs"],"bee_group":{"antennae":"B","wings":"X","pattern":"X","legs":"F"},"bonus":0.8200000000000006},{"view_history":[{"page_index":0,"viewing_time":4791.800000071526},{"page_index":1,"viewing_time":6195.899999976158},{"page_index":2,"viewing_time":1858.7000000476837},{"page_index":3,"viewing_time":2320.399999976158},{"page_index":4,"viewing_time":1845.6999999284744},{"page_index":5,"viewing_time":1307.8000000715256},{"page_index":6,"viewing_time":1286.5},{"page_index":7,"viewing_time":2477.600000023842},{"page_index":8,"viewing_time":2354.7999999523163},{"page_index":9,"viewing_time":1384.7999999523163},{"page_index":10,"viewing_time":1232.6000000238419},{"page_index":11,"viewing_time":2821.8000000715256},{"page_index":12,"viewing_time":1368.5999999046326},{"page_index":13,"viewing_time":1312.7000000476837},{"page_index":14,"viewing_time":1547.7000000476837}],"rt":34107.60000002384,"trial_type":"instructions","trial_index":7,"time_elapsed":217662,"internal_node_id":"0.0-3.0-4.0-0.0","subject_id":"60ba349d21c7acbaaabc36dd","study_id":"6197b3f67c2b5cd3b6d9596a","session_id":"619be3210778af80abd78ec0","condition":"contingent","relevant_dimensions":["antennae","legs"],"bee_group":{"antennae":"B","wings":"X","pattern":"X","legs":"F"},"bonus":0.8200000000000006},{"rt":17240.900000095367,"response":{"Q0":["Two or six legs","Stripes or spots on body","Single or double wings","Antennae or no antennae"]},"question_order":[0],"trial_type":"survey-multi-select","trial_index":8,"time_elapsed":234907,"internal_node_id":"0.0-3.0-4.0-1.0","subject_id":"60ba349d21c7acbaaabc36dd","study_id":"6197b3f67c2b5cd3b6d9596a","session_id":"619be3210778af80abd78ec0","condition":"contingent","relevant_dimensions":["antennae","legs"],"bee_group":{"antennae":"B","wings":"X","pattern":"X","legs":"F"},"correct":true,"bonus":0.8200000000000006},{"rt":11337.699999928474,"response":{"Q1":"No.","Q2":"Based on the four features of the bee.","Q3":"You do not learn if it was friendly or dangerous, and do not alter your bonus."},"question_order":[0,1,2],"trial_type":"survey-multi-choice","trial_index":9,"time_elapsed":246246,"internal_node_id":"0.0-3.0-4.0-2.0","subject_id":"60ba349d21c7acbaaabc36dd","study_id":"6197b3f67c2b5cd3b6d9596a","session_id":"619be3210778af80abd78ec0","condition":"contingent","relevant_dimensions":["antennae","legs"],"bee_group":{"antennae":"B","wings":"X","pattern":"X","legs":"F"},"correct":true,"bonus":0.8200000000000006},{"rt":2295.600000023842,"stimulus":"<p>Congrats, you got everything right<br>When you're ready, click the button below to continue to the experiment.</p>","response":0,"trial_type":"html-button-response","trial_index":10,"time_elapsed":248542,"internal_node_id":"0.0-3.0-4.0-3.0","subject_id":"60ba349d21c7acbaaabc36dd","study_id":"6197b3f67c2b5cd3b6d9596a","session_id":"619be3210778af80abd78ec0","condition":"contingent","relevant_dimensions":["antennae","legs"],"bee_group":{"antennae":"B","wings":"X","pattern":"X","legs":"F"},"bonus":0.8200000000000006},{"rt":2803.2999999523163,"stimulus":"bees-with-color/bee-A1DF.svg","response":1,"trial_type":"image-button-response","trial_index":11,"time_elapsed":251347,"internal_node_id":"0.0-4.0-0.0","subject_id":"60ba349d21c7acbaaabc36dd","study_id":"6197b3f67c2b5cd3b6d9596a","session_id":"619be3210778af80abd78ec0","condition":"contingent","relevant_dimensions":["antennae","legs"],"bee_group":{"antennae":"B","wings":"X","pattern":"X","legs":"F"},"action":"avoid","summary":"bad-avoid","bonus":0.8200000000000006},{"rt":3940,"stimulus":"\n                    <p><b>Action: <em>avoid</em></b></p>\n                    <p>This is the bee that you just saw.</p>\n                    <img src=\"bees-with-color/bee-A1DF.svg\" width=\"200\">\n                    <p><br>Your bonus pay is unchanged, and remains at $0.54.</p>\n            ","response":0,"trial_type":"html-button-response","trial_index":12,"time_elapsed":255289,"internal_node_id":"0.0-4.0-1.0","subject_id":"60ba349d21c7acbaaabc36dd","study_id":"6197b3f67c2b5cd3b6d9596a","session_id":"619be3210778af80abd78ec0","condition":"contingent","relevant_dimensions":["antennae","legs"],"bee_group":{"antennae":"B","wings":"X","pattern":"X","legs":"F"},"bonus":0.8200000000000006},{"rt":1758.2999999523163,"stimulus":"bees-with-color/bee-B1DF.svg","response":1,"trial_type":"image-button-response","trial_index":13,"time_elapsed":257049,"internal_node_id":"0.0-4.0-0.1","subject_id":"60ba349d21c7acbaaabc36dd","study_id":"6197b3f67c2b5cd3b6d9596a","session_id":"619be3210778af80abd78ec0","condition":"contingent","relevant_dimensions":["antennae","legs"],"bee_group":{"antennae":"B","wings":"X","pattern":"X","legs":"F"},"action":"avoid","summary":"good-avoid","bonus":0.8200000000000006},{"rt":1182.1000000238419,"stimulus":"\n                    <p><b>Action: <em>avoid</em></b></p>\n                    <p>This is the bee that you just saw.</p>\n                    <img src=\"bees-with-color/bee-B1DF.svg\" width=\"200\">\n                    <p><br>Your bonus pay is unchanged, and remains at $0.54.</p>\n            ","response":0,"trial_type":"html-button-response","trial_index":14,"time_elapsed":258232,"internal_node_id":"0.0-4.0-1.1","subject_id":"60ba349d21c7acbaaabc36dd","study_id":"6197b3f67c2b5cd3b6d9596a","session_id":"619be3210778af80abd78ec0","condition":"contingent","relevant_dimensions":["antennae","legs"],"bee_group":{"antennae":"B","wings":"X","pattern":"X","legs":"F"},"bonus":0.8200000000000006},{"rt":1575.5,"stimulus":"bees-with-color/bee-A1DM.svg","response":0,"trial_type":"image-button-response","trial_index":15,"time_elapsed":259809,"internal_node_id":"0.0-4.0-0.2","subject_id":"60ba349d21c7acbaaabc36dd","study_id":"6197b3f67c2b5cd3b6d9596a","session_id":"619be3210778af80abd78ec0","condition":"contingent","relevant_dimensions":["antennae","legs"],"bee_group":{"antennae":"B","wings":"X","pattern":"X","legs":"F"},"action":"harvest","summary":"good-harvest","bonus":0.8200000000000006},{"rt":6248.799999952316,"stimulus":"\n                    <p><b>Action: <em>harvest</em></b></p>\n                    <p>This is the bee that you just saw.</p>\n                    <img src=\"bees-with-color/bee-A1DM.svg\" width=\"200\">\n                    <p><span class=\"greenText\"><b>Successful harvest!</b></span><br>Your pay has increased by $0.02. Your bonus pay is now $0.56.</p>\n            ","response":0,"trial_type":"html-button-response","trial_index":16,"time_elapsed":266059,"internal_node_id":"0.0-4.0-1.2","subject_id":"60ba349d21c7acbaaabc36dd","study_id":"6197b3f67c2b5cd3b6d9596a","session_id":"619be3210778af80abd78ec0","condition":"contingent","relevant_dimensions":["antennae","legs"],"bee_group":{"antennae":"B","wings":"X","pattern":"X","legs":"F"},"bonus":0.8200000000000006},{"rt":3904,"stimulus":"bees-with-color/bee-B2SM.svg","response":0,"trial_type":"image-button-response","trial_index":17,"time_elapsed":269965,"internal_node_id":"0.0-4.0-0.3","subject_id":"60ba349d21c7acbaaabc36dd","study_id":"6197b3f67c2b5cd3b6d9596a","session_id":"619be3210778af80abd78ec0","condition":"contingent","relevant_dimensions":["antennae","legs"],"bee_group":{"antennae":"B","wings":"X","pattern":"X","legs":"F"},"action":"harvest","summary":"good-harvest","bonus":0.8200000000000006},{"rt":1302.8999999761581,"stimulus":"\n                    <p><b>Action: <em>harvest</em></b></p>\n                    <p>This is the bee that you just saw.</p>\n                    <img src=\"bees-with-color/bee-B2SM.svg\" width=\"200\">\n                    <p><span class=\"greenText\"><b>Successful harvest!</b></span><br>Your pay has increased by $0.02. Your bonus pay is now $0.58.</p>\n            ","response":0,"trial_type":"html-button-response","trial_index":18,"time_elapsed":271269,"internal_node_id":"0.0-4.0-1.3","subject_id":"60ba349d21c7acbaaabc36dd","study_id":"6197b3f67c2b5cd3b6d9596a","session_id":"619be3210778af80abd78ec0","condition":"contingent","relevant_dimensions":["antennae","legs"],"bee_group":{"antennae":"B","wings":"X","pattern":"X","legs":"F"},"bonus":0.8200000000000006},{"rt":1446.1999999284744,"stimulus":"bees-with-color/bee-B2DF.svg","response":1,"trial_type":"image-button-response","trial_index":19,"time_elapsed":272717,"internal_node_id":"0.0-4.0-0.4","subject_id":"60ba349d21c7acbaaabc36dd","study_id":"6197b3f67c2b5cd3b6d9596a","session_id":"619be3210778af80abd78ec0","condition":"contingent","relevant_dimensions":["antennae","legs"],"bee_group":{"antennae":"B","wings":"X","pattern":"X","legs":"F"},"action":"avoid","summary":"good-avoid","bonus":0.8200000000000006},{"rt":1198.9000000953674,"stimulus":"\n                    <p><b>Action: <em>avoid</em></b></p>\n                    <p>This is the bee that you just saw.</p>\n                    <img src=\"bees-with-color/bee-B2DF.svg\" width=\"200\">\n                    <p><br>Your bonus pay is unchanged, and remains at $0.58.</p>\n            ","response":0,"trial_type":"html-button-response","trial_index":20,"time_elapsed":273917,"internal_node_id":"0.0-4.0-1.4","subject_id":"60ba349d21c7acbaaabc36dd","study_id":"6197b3f67c2b5cd3b6d9596a","session_id":"619be3210778af80abd78ec0","condition":"contingent","relevant_dimensions":["antennae","legs"],"bee_group":{"antennae":"B","wings":"X","pattern":"X","legs":"F"},"bonus":0.8200000000000006},{"rt":1313.8999999761581,"stimulus":"bees-with-color/bee-A2DM.svg","response":0,"trial_type":"image-button-response","trial_index":21,"time_elapsed":275232,"internal_node_id":"0.0-4.0-0.5","subject_id":"60ba349d21c7acbaaabc36dd","study_id":"6197b3f67c2b5cd3b6d9596a","session_id":"619be3210778af80abd78ec0","condition":"contingent","relevant_dimensions":["antennae","legs"],"bee_group":{"antennae":"B","wings":"X","pattern":"X","legs":"F"},"action":"harvest","summary":"good-harvest","bonus":0.8200000000000006},{"rt":1288.8000000715256,"stimulus":"\n                    <p><b>Action: <em>harvest</em></b></p>\n                    <p>This is the bee that you just saw.</p>\n                    <img src=\"bees-with-color/bee-A2DM.svg\" width=\"200\">\n                    <p><span class=\"greenText\"><b>Successful harvest!</b></span><br>Your pay has increased by $0.02. Your bonus pay is now $0.60.</p>\n            ","response":0,"trial_type":"html-button-response","trial_index":22,"time_elapsed":276522,"internal_node_id":"0.0-4.0-1.5","subject_id":"60ba349d21c7acbaaabc36dd","study_id":"6197b3f67c2b5cd3b6d9596a","session_id":"619be3210778af80abd78ec0","condition":"contingent","relevant_dimensions":["antennae","legs"],"bee_group":{"antennae":"B","wings":"X","pattern":"X","legs":"F"},"bonus":0.8200000000000006},{"rt":1869.7999999523163,"stimulus":"bees-with-color/bee-A2DF.svg","response":0,"trial_type":"image-button-response","trial_index":23,"time_elapsed":278393,"internal_node_id":"0.0-4.0-0.6","subject_id":"60ba349d21c7acbaaabc36dd","study_id":"6197b3f67c2b5cd3b6d9596a","session_id":"619be3210778af80abd78ec0","condition":"contingent","relevant_dimensions":["antennae","legs"],"bee_group":{"antennae":"B","wings":"X","pattern":"X","legs":"F"},"action":"harvest","summary":"good-harvest","bonus":0.8200000000000006},{"rt":1212.5,"stimulus":"\n                    <p><b>Action: <em>harvest</em></b></p>\n                    <p>This is the bee that you just saw.</p>\n                    <img src=\"bees-with-color/bee-A2DF.svg\" width=\"200\">\n                    <p><span class=\"greenText\"><b>Successful harvest!</b></span><br>Your pay has increased by $0.02. Your bonus pay is now $0.62.</p>\n            ","response":0,"trial_type":"html-button-response","trial_index":24,"time_elapsed":279606,"internal_node_id":"0.0-4.0-1.6","subject_id":"60ba349d21c7acbaaabc36dd","study_id":"6197b3f67c2b5cd3b6d9596a","session_id":"619be3210778af80abd78ec0","condition":"contingent","relevant_dimensions":["antennae","legs"],"bee_group":{"antennae":"B","wings":"X","pattern":"X","legs":"F"},"bonus":0.8200000000000006},{"rt":1825.5,"stimulus":"bees-with-color/bee-A2SM.svg","response":1,"trial_type":"image-button-response","trial_index":25,"time_elapsed":281433,"internal_node_id":"0.0-4.0-0.7","subject_id":"60ba349d21c7acbaaabc36dd","study_id":"6197b3f67c2b5cd3b6d9596a","session_id":"619be3210778af80abd78ec0","condition":"contingent","relevant_dimensions":["antennae","legs"],"bee_group":{"antennae":"B","wings":"X","pattern":"X","legs":"F"},"action":"avoid","summary":"bad-avoid","bonus":0.8200000000000006},{"rt":1122.9000000953674,"stimulus":"\n                    <p><b>Action: <em>avoid</em></b></p>\n                    <p>This is the bee that you just saw.</p>\n                    <img src=\"bees-with-color/bee-A2SM.svg\" width=\"200\">\n                    <p><br>Your bonus pay is unchanged, and remains at $0.62.</p>\n            ","response":0,"trial_type":"html-button-response","trial_index":26,"time_elapsed":282557,"internal_node_id":"0.0-4.0-1.7","subject_id":"60ba349d21c7acbaaabc36dd","study_id":"6197b3f67c2b5cd3b6d9596a","session_id":"619be3210778af80abd78ec0","condition":"contingent","relevant_dimensions":["antennae","legs"],"bee_group":{"antennae":"B","wings":"X","pattern":"X","legs":"F"},"bonus":0.8200000000000006},{"rt":1539,"stimulus":"bees-with-color/bee-B1SM.svg","response":0,"trial_type":"image-button-response","trial_index":27,"time_elapsed":284097,"internal_node_id":"0.0-4.0-0.8","subject_id":"60ba349d21c7acbaaabc36dd","study_id":"6197b3f67c2b5cd3b6d9596a","session_id":"619be3210778af80abd78ec0","condition":"contingent","relevant_dimensions":["antennae","legs"],"bee_group":{"antennae":"B","wings":"X","pattern":"X","legs":"F"},"action":"harvest","summary":"good-harvest","bonus":0.8200000000000006},{"rt":1201.2999999523163,"stimulus":"\n                    <p><b>Action: <em>harvest</em></b></p>\n                    <p>This is the bee that you just saw.</p>\n                    <img src=\"bees-with-color/bee-B1SM.svg\" width=\"200\">\n                    <p><span class=\"greenText\"><b>Successful harvest!</b></span><br>Your pay has increased by $0.02. Your bonus pay is now $0.64.</p>\n            ","response":0,"trial_type":"html-button-response","trial_index":28,"time_elapsed":285300,"internal_node_id":"0.0-4.0-1.8","subject_id":"60ba349d21c7acbaaabc36dd","study_id":"6197b3f67c2b5cd3b6d9596a","session_id":"619be3210778af80abd78ec0","condition":"contingent","relevant_dimensions":["antennae","legs"],"bee_group":{"antennae":"B","wings":"X","pattern":"X","legs":"F"},"bonus":0.8200000000000006},{"rt":1109.5,"stimulus":"bees-with-color/bee-A1SM.svg","response":0,"trial_type":"image-button-response","trial_index":29,"time_elapsed":286410,"internal_node_id":"0.0-4.0-0.9","subject_id":"60ba349d21c7acbaaabc36dd","study_id":"6197b3f67c2b5cd3b6d9596a","session_id":"619be3210778af80abd78ec0","condition":"contingent","relevant_dimensions":["antennae","legs"],"bee_group":{"antennae":"B","wings":"X","pattern":"X","legs":"F"},"action":"harvest","summary":"good-harvest","bonus":0.8200000000000006},{"rt":1110.5,"stimulus":"\n                    <p><b>Action: <em>harvest</em></b></p>\n                    <p>This is the bee that you just saw.</p>\n                    <img src=\"bees-with-color/bee-A1SM.svg\" width=\"200\">\n                    <p><span class=\"greenText\"><b>Successful harvest!</b></span><br>Your pay has increased by $0.02. Your bonus pay is now $0.66.</p>\n            ","response":0,"trial_type":"html-button-response","trial_index":30,"time_elapsed":287522,"internal_node_id":"0.0-4.0-1.9","subject_id":"60ba349d21c7acbaaabc36dd","study_id":"6197b3f67c2b5cd3b6d9596a","session_id":"619be3210778af80abd78ec0","condition":"contingent","relevant_dimensions":["antennae","legs"],"bee_group":{"antennae":"B","wings":"X","pattern":"X","legs":"F"},"bonus":0.8200000000000006},{"rt":4339.5,"stimulus":"bees-with-color/bee-B1SF.svg","response":0,"trial_type":"image-button-response","trial_index":31,"time_elapsed":291862,"internal_node_id":"0.0-4.0-0.10","subject_id":"60ba349d21c7acbaaabc36dd","study_id":"6197b3f67c2b5cd3b6d9596a","session_id":"619be3210778af80abd78ec0","condition":"contingent","relevant_dimensions":["antennae","legs"],"bee_group":{"antennae":"B","wings":"X","pattern":"X","legs":"F"},"action":"harvest","summary":"bad-harvest","bonus":0.8200000000000006},{"rt":1465.7999999523163,"stimulus":"\n                    <p><b>Action: <em>harvest</em></b></p>\n                    <p>This is the bee that you just saw.</p>\n                    <img src=\"bees-with-color/bee-B1SF.svg\" width=\"200\">\n                    <p><span class=\"redText\">Bad choice, the bee was angry.</span><br><b>You have been stung!</b><br>Your pay has been decreased by $0.10. Your bonus pay is now $0.56.</p>\n            ","response":0,"trial_type":"html-button-response","trial_index":32,"time_elapsed":293329,"internal_node_id":"0.0-4.0-1.10","subject_id":"60ba349d21c7acbaaabc36dd","study_id":"6197b3f67c2b5cd3b6d9596a","session_id":"619be3210778af80abd78ec0","condition":"contingent","relevant_dimensions":["antennae","legs"],"bee_group":{"antennae":"B","wings":"X","pattern":"X","legs":"F"},"bonus":0.8200000000000006},{"rt":1295.1000000238419,"stimulus":"bees-with-color/bee-A1SF.svg","response":1,"trial_type":"image-button-response","trial_index":33,"time_elapsed":294625,"internal_node_id":"0.0-4.0-0.11","subject_id":"60ba349d21c7acbaaabc36dd","study_id":"6197b3f67c2b5cd3b6d9596a","session_id":"619be3210778af80abd78ec0","condition":"contingent","relevant_dimensions":["antennae","legs"],"bee_group":{"antennae":"B","wings":"X","pattern":"X","legs":"F"},"action":"avoid","summary":"bad-avoid","bonus":0.8200000000000006},{"rt":1242.5,"stimulus":"\n                    <p><b>Action: <em>avoid</em></b></p>\n                    <p>This is the bee that you just saw.</p>\n                    <img src=\"bees-with-color/bee-A1SF.svg\" width=\"200\">\n                    <p><br>Your bonus pay is unchanged, and remains at $0.56.</p>\n            ","response":0,"trial_type":"html-button-response","trial_index":34,"time_elapsed":295869,"internal_node_id":"0.0-4.0-1.11","subject_id":"60ba349d21c7acbaaabc36dd","study_id":"6197b3f67c2b5cd3b6d9596a","session_id":"619be3210778af80abd78ec0","condition":"contingent","relevant_dimensions":["antennae","legs"],"bee_group":{"antennae":"B","wings":"X","pattern":"X","legs":"F"},"bonus":0.8200000000000006},{"rt":1276.1000000238419,"stimulus":"bees-with-color/bee-B1DM.svg","response":0,"trial_type":"image-button-response","trial_index":35,"time_elapsed":297146,"internal_node_id":"0.0-4.0-0.12","subject_id":"60ba349d21c7acbaaabc36dd","study_id":"6197b3f67c2b5cd3b6d9596a","session_id":"619be3210778af80abd78ec0","condition":"contingent","relevant_dimensions":["antennae","legs"],"bee_group":{"antennae":"B","wings":"X","pattern":"X","legs":"F"},"action":"harvest","summary":"good-harvest","bonus":0.8200000000000006},{"rt":1139.1000000238419,"stimulus":"\n                    <p><b>Action: <em>harvest</em></b></p>\n                    <p>This is the bee that you just saw.</p>\n                    <img src=\"bees-with-color/bee-B1DM.svg\" width=\"200\">\n                    <p><span class=\"greenText\"><b>Successful harvest!</b></span><br>Your pay has increased by $0.02. Your bonus pay is now $0.58.</p>\n            ","response":0,"trial_type":"html-button-response","trial_index":36,"time_elapsed":298286,"internal_node_id":"0.0-4.0-1.12","subject_id":"60ba349d21c7acbaaabc36dd","study_id":"6197b3f67c2b5cd3b6d9596a","session_id":"619be3210778af80abd78ec0","condition":"contingent","relevant_dimensions":["antennae","legs"],"bee_group":{"antennae":"B","wings":"X","pattern":"X","legs":"F"},"bonus":0.8200000000000006},{"rt":2767.8000000715256,"stimulus":"bees-with-color/bee-B2SF.svg","response":0,"trial_type":"image-button-response","trial_index":37,"time_elapsed":301055,"internal_node_id":"0.0-4.0-0.13","subject_id":"60ba349d21c7acbaaabc36dd","study_id":"6197b3f67c2b5cd3b6d9596a","session_id":"619be3210778af80abd78ec0","condition":"contingent","relevant_dimensions":["antennae","legs"],"bee_group":{"antennae":"B","wings":"X","pattern":"X","legs":"F"},"action":"harvest","summary":"bad-harvest","bonus":0.8200000000000006},{"rt":1163.7999999523163,"stimulus":"\n                    <p><b>Action: <em>harvest</em></b></p>\n                    <p>This is the bee that you just saw.</p>\n                    <img src=\"bees-with-color/bee-B2SF.svg\" width=\"200\">\n                    <p><span class=\"redText\">Bad choice, the bee was angry.</span><br><b>You have been stung!</b><br>Your pay has been decreased by $0.10. Your bonus pay is now $0.48.</p>\n            ","response":0,"trial_type":"html-button-response","trial_index":38,"time_elapsed":302220,"internal_node_id":"0.0-4.0-1.13","subject_id":"60ba349d21c7acbaaabc36dd","study_id":"6197b3f67c2b5cd3b6d9596a","session_id":"619be3210778af80abd78ec0","condition":"contingent","relevant_dimensions":["antennae","legs"],"bee_group":{"antennae":"B","wings":"X","pattern":"X","legs":"F"},"bonus":0.8200000000000006},{"rt":1836.1000000238419,"stimulus":"bees-with-color/bee-B2DM.svg","response":0,"trial_type":"image-button-response","trial_index":39,"time_elapsed":304057,"internal_node_id":"0.0-4.0-0.14","subject_id":"60ba349d21c7acbaaabc36dd","study_id":"6197b3f67c2b5cd3b6d9596a","session_id":"619be3210778af80abd78ec0","condition":"contingent","relevant_dimensions":["antennae","legs"],"bee_group":{"antennae":"B","wings":"X","pattern":"X","legs":"F"},"action":"harvest","summary":"good-harvest","bonus":0.8200000000000006},{"rt":1008.7000000476837,"stimulus":"\n                    <p><b>Action: <em>harvest</em></b></p>\n                    <p>This is the bee that you just saw.</p>\n                    <img src=\"bees-with-color/bee-B2DM.svg\" width=\"200\">\n                    <p><span class=\"greenText\"><b>Successful harvest!</b></span><br>Your pay has increased by $0.02. Your bonus pay is now $0.50.</p>\n            ","response":0,"trial_type":"html-button-response","trial_index":40,"time_elapsed":305067,"internal_node_id":"0.0-4.0-1.14","subject_id":"60ba349d21c7acbaaabc36dd","study_id":"6197b3f67c2b5cd3b6d9596a","session_id":"619be3210778af80abd78ec0","condition":"contingent","relevant_dimensions":["antennae","legs"],"bee_group":{"antennae":"B","wings":"X","pattern":"X","legs":"F"},"bonus":0.8200000000000006},{"rt":1495.2999999523163,"stimulus":"bees-with-color/bee-A2SF.svg","response":1,"trial_type":"image-button-response","trial_index":41,"time_elapsed":306563,"internal_node_id":"0.0-4.0-0.15","subject_id":"60ba349d21c7acbaaabc36dd","study_id":"6197b3f67c2b5cd3b6d9596a","session_id":"619be3210778af80abd78ec0","condition":"contingent","relevant_dimensions":["antennae","legs"],"bee_group":{"antennae":"B","wings":"X","pattern":"X","legs":"F"},"action":"avoid","summary":"bad-avoid","bonus":0.8200000000000006},{"rt":996.2000000476837,"stimulus":"\n                    <p><b>Action: <em>avoid</em></b></p>\n                    <p>This is the bee that you just saw.</p>\n                    <img src=\"bees-with-color/bee-A2SF.svg\" width=\"200\">\n                    <p><br>Your bonus pay is unchanged, and remains at $0.50.</p>\n            ","response":0,"trial_type":"html-button-response","trial_index":42,"time_elapsed":307561,"internal_node_id":"0.0-4.0-1.15","subject_id":"60ba349d21c7acbaaabc36dd","study_id":"6197b3f67c2b5cd3b6d9596a","session_id":"619be3210778af80abd78ec0","condition":"contingent","relevant_dimensions":["antennae","legs"],"bee_group":{"antennae":"B","wings":"X","pattern":"X","legs":"F"},"bonus":0.8200000000000006},{"rt":1121,"stimulus":"bees-with-color/bee-B1SM.svg","response":1,"trial_type":"image-button-response","trial_index":43,"time_elapsed":308683,"internal_node_id":"0.0-4.0-0.16","subject_id":"60ba349d21c7acbaaabc36dd","study_id":"6197b3f67c2b5cd3b6d9596a","session_id":"619be3210778af80abd78ec0","condition":"contingent","relevant_dimensions":["antennae","legs"],"bee_group":{"antennae":"B","wings":"X","pattern":"X","legs":"F"},"action":"avoid","summary":"bad-avoid","bonus":0.8200000000000006},{"rt":998,"stimulus":"\n                    <p><b>Action: <em>avoid</em></b></p>\n                    <p>This is the bee that you just saw.</p>\n                    <img src=\"bees-with-color/bee-B1SM.svg\" width=\"200\">\n                    <p><br>Your bonus pay is unchanged, and remains at $0.50.</p>\n            ","response":0,"trial_type":"html-button-response","trial_index":44,"time_elapsed":309682,"internal_node_id":"0.0-4.0-1.16","subject_id":"60ba349d21c7acbaaabc36dd","study_id":"6197b3f67c2b5cd3b6d9596a","session_id":"619be3210778af80abd78ec0","condition":"contingent","relevant_dimensions":["antennae","legs"],"bee_group":{"antennae":"B","wings":"X","pattern":"X","legs":"F"},"bonus":0.8200000000000006},{"rt":1026.1999999284744,"stimulus":"bees-with-color/bee-A1SM.svg","response":0,"trial_type":"image-button-response","trial_index":45,"time_elapsed":310710,"internal_node_id":"0.0-4.0-0.17","subject_id":"60ba349d21c7acbaaabc36dd","study_id":"6197b3f67c2b5cd3b6d9596a","session_id":"619be3210778af80abd78ec0","condition":"contingent","relevant_dimensions":["antennae","legs"],"bee_group":{"antennae":"B","wings":"X","pattern":"X","legs":"F"},"action":"harvest","summary":"good-harvest","bonus":0.8200000000000006},{"rt":1063.7000000476837,"stimulus":"\n                    <p><b>Action: <em>harvest</em></b></p>\n                    <p>This is the bee that you just saw.</p>\n                    <img src=\"bees-with-color/bee-A1SM.svg\" width=\"200\">\n                    <p><span class=\"greenText\"><b>Successful harvest!</b></span><br>Your pay has increased by $0.02. Your bonus pay is now $0.52.</p>\n            ","response":0,"trial_type":"html-button-response","trial_index":46,"time_elapsed":311774,"internal_node_id":"0.0-4.0-1.17","subject_id":"60ba349d21c7acbaaabc36dd","study_id":"6197b3f67c2b5cd3b6d9596a","session_id":"619be3210778af80abd78ec0","condition":"contingent","relevant_dimensions":["antennae","legs"],"bee_group":{"antennae":"B","wings":"X","pattern":"X","legs":"F"},"bonus":0.8200000000000006},{"rt":1199.7999999523163,"stimulus":"bees-with-color/bee-A2SM.svg","response":1,"trial_type":"image-button-response","trial_index":47,"time_elapsed":312975,"internal_node_id":"0.0-4.0-0.18","subject_id":"60ba349d21c7acbaaabc36dd","study_id":"6197b3f67c2b5cd3b6d9596a","session_id":"619be3210778af80abd78ec0","condition":"contingent","relevant_dimensions":["antennae","legs"],"bee_group":{"antennae":"B","wings":"X","pattern":"X","legs":"F"},"action":"avoid","summary":"bad-avoid","bonus":0.8200000000000006},{"rt":1371.1999999284744,"stimulus":"\n                    <p><b>Action: <em>avoid</em></b></p>\n                    <p>This is the bee that you just saw.</p>\n                    <img src=\"bees-with-color/bee-A2SM.svg\" width=\"200\">\n                    <p><br>Your bonus pay is unchanged, and remains at $0.52.</p>\n            ","response":0,"trial_type":"html-button-response","trial_index":48,"time_elapsed":314348,"internal_node_id":"0.0-4.0-1.18","subject_id":"60ba349d21c7acbaaabc36dd","study_id":"6197b3f67c2b5cd3b6d9596a","session_id":"619be3210778af80abd78ec0","condition":"contingent","relevant_dimensions":["antennae","legs"],"bee_group":{"antennae":"B","wings":"X","pattern":"X","legs":"F"},"bonus":0.8200000000000006},{"rt":1060.8000000715256,"stimulus":"bees-with-color/bee-B1DM.svg","response":1,"trial_type":"image-button-response","trial_index":49,"time_elapsed":315410,"internal_node_id":"0.0-4.0-0.19","subject_id":"60ba349d21c7acbaaabc36dd","study_id":"6197b3f67c2b5cd3b6d9596a","session_id":"619be3210778af80abd78ec0","condition":"contingent","relevant_dimensions":["antennae","legs"],"bee_group":{"antennae":"B","wings":"X","pattern":"X","legs":"F"},"action":"avoid","summary":"bad-avoid","bonus":0.8200000000000006},{"rt":1007.7999999523163,"stimulus":"\n                    <p><b>Action: <em>avoid</em></b></p>\n                    <p>This is the bee that you just saw.</p>\n                    <img src=\"bees-with-color/bee-B1DM.svg\" width=\"200\">\n                    <p><br>Your bonus pay is unchanged, and remains at $0.52.</p>\n            ","response":0,"trial_type":"html-button-response","trial_index":50,"time_elapsed":316419,"internal_node_id":"0.0-4.0-1.19","subject_id":"60ba349d21c7acbaaabc36dd","study_id":"6197b3f67c2b5cd3b6d9596a","session_id":"619be3210778af80abd78ec0","condition":"contingent","relevant_dimensions":["antennae","legs"],"bee_group":{"antennae":"B","wings":"X","pattern":"X","legs":"F"},"bonus":0.8200000000000006},{"rt":937.1000000238419,"stimulus":"bees-with-color/bee-A1DF.svg","response":1,"trial_type":"image-button-response","trial_index":51,"time_elapsed":317357,"internal_node_id":"0.0-4.0-0.20","subject_id":"60ba349d21c7acbaaabc36dd","study_id":"6197b3f67c2b5cd3b6d9596a","session_id":"619be3210778af80abd78ec0","condition":"contingent","relevant_dimensions":["antennae","legs"],"bee_group":{"antennae":"B","wings":"X","pattern":"X","legs":"F"},"action":"avoid","summary":"bad-avoid","bonus":0.8200000000000006},{"rt":964.8999999761581,"stimulus":"\n                    <p><b>Action: <em>avoid</em></b></p>\n                    <p>This is the bee that you just saw.</p>\n                    <img src=\"bees-with-color/bee-A1DF.svg\" width=\"200\">\n                    <p><br>Your bonus pay is unchanged, and remains at $0.52.</p>\n            ","response":0,"trial_type":"html-button-response","trial_index":52,"time_elapsed":318323,"internal_node_id":"0.0-4.0-1.20","subject_id":"60ba349d21c7acbaaabc36dd","study_id":"6197b3f67c2b5cd3b6d9596a","session_id":"619be3210778af80abd78ec0","condition":"contingent","relevant_dimensions":["antennae","legs"],"bee_group":{"antennae":"B","wings":"X","pattern":"X","legs":"F"},"bonus":0.8200000000000006},{"rt":982.7000000476837,"stimulus":"bees-with-color/bee-B2SF.svg","response":1,"trial_type":"image-button-response","trial_index":53,"time_elapsed":319306,"internal_node_id":"0.0-4.0-0.21","subject_id":"60ba349d21c7acbaaabc36dd","study_id":"6197b3f67c2b5cd3b6d9596a","session_id":"619be3210778af80abd78ec0","condition":"contingent","relevant_dimensions":["antennae","legs"],"bee_group":{"antennae":"B","wings":"X","pattern":"X","legs":"F"},"action":"avoid","summary":"good-avoid","bonus":0.8200000000000006},{"rt":1074.6000000238419,"stimulus":"\n                    <p><b>Action: <em>avoid</em></b></p>\n                    <p>This is the bee that you just saw.</p>\n                    <img src=\"bees-with-color/bee-B2SF.svg\" width=\"200\">\n                    <p><br>Your bonus pay is unchanged, and remains at $0.52.</p>\n            ","response":0,"trial_type":"html-button-response","trial_index":54,"time_elapsed":320382,"internal_node_id":"0.0-4.0-1.21","subject_id":"60ba349d21c7acbaaabc36dd","study_id":"6197b3f67c2b5cd3b6d9596a","session_id":"619be3210778af80abd78ec0","condition":"contingent","relevant_dimensions":["antennae","legs"],"bee_group":{"antennae":"B","wings":"X","pattern":"X","legs":"F"},"bonus":0.8200000000000006},{"rt":1024.1000000238419,"stimulus":"bees-with-color/bee-B2DF.svg","response":0,"trial_type":"image-button-response","trial_index":55,"time_elapsed":321407,"internal_node_id":"0.0-4.0-0.22","subject_id":"60ba349d21c7acbaaabc36dd","study_id":"6197b3f67c2b5cd3b6d9596a","session_id":"619be3210778af80abd78ec0","condition":"contingent","relevant_dimensions":["antennae","legs"],"bee_group":{"antennae":"B","wings":"X","pattern":"X","legs":"F"},"action":"harvest","summary":"bad-harvest","bonus":0.8200000000000006},{"rt":1121.1000000238419,"stimulus":"\n                    <p><b>Action: <em>harvest</em></b></p>\n                    <p>This is the bee that you just saw.</p>\n                    <img src=\"bees-with-color/bee-B2DF.svg\" width=\"200\">\n                    <p><span class=\"redText\">Bad choice, the bee was angry.</span><br><b>You have been stung!</b><br>Your pay has been decreased by $0.10. Your bonus pay is now $0.42.</p>\n            ","response":0,"trial_type":"html-button-response","trial_index":56,"time_elapsed":322529,"internal_node_id":"0.0-4.0-1.22","subject_id":"60ba349d21c7acbaaabc36dd","study_id":"6197b3f67c2b5cd3b6d9596a","session_id":"619be3210778af80abd78ec0","condition":"contingent","relevant_dimensions":["antennae","legs"],"bee_group":{"antennae":"B","wings":"X","pattern":"X","legs":"F"},"bonus":0.8200000000000006},{"rt":1468.2999999523163,"stimulus":"bees-with-color/bee-B2DM.svg","response":0,"trial_type":"image-button-response","trial_index":57,"time_elapsed":323998,"internal_node_id":"0.0-4.0-0.23","subject_id":"60ba349d21c7acbaaabc36dd","study_id":"6197b3f67c2b5cd3b6d9596a","session_id":"619be3210778af80abd78ec0","condition":"contingent","relevant_dimensions":["antennae","legs"],"bee_group":{"antennae":"B","wings":"X","pattern":"X","legs":"F"},"action":"harvest","summary":"good-harvest","bonus":0.8200000000000006},{"rt":1120.2000000476837,"stimulus":"\n                    <p><b>Action: <em>harvest</em></b></p>\n                    <p>This is the bee that you just saw.</p>\n                    <img src=\"bees-with-color/bee-B2DM.svg\" width=\"200\">\n                    <p><span class=\"greenText\"><b>Successful harvest!</b></span><br>Your pay has increased by $0.02. Your bonus pay is now $0.44.</p>\n            ","response":0,"trial_type":"html-button-response","trial_index":58,"time_elapsed":325119,"internal_node_id":"0.0-4.0-1.23","subject_id":"60ba349d21c7acbaaabc36dd","study_id":"6197b3f67c2b5cd3b6d9596a","session_id":"619be3210778af80abd78ec0","condition":"contingent","relevant_dimensions":["antennae","legs"],"bee_group":{"antennae":"B","wings":"X","pattern":"X","legs":"F"},"bonus":0.8200000000000006},{"rt":1007.5999999046326,"stimulus":"bees-with-color/bee-A1SF.svg","response":0,"trial_type":"image-button-response","trial_index":59,"time_elapsed":326128,"internal_node_id":"0.0-4.0-0.24","subject_id":"60ba349d21c7acbaaabc36dd","study_id":"6197b3f67c2b5cd3b6d9596a","session_id":"619be3210778af80abd78ec0","condition":"contingent","relevant_dimensions":["antennae","legs"],"bee_group":{"antennae":"B","wings":"X","pattern":"X","legs":"F"},"action":"harvest","summary":"good-harvest","bonus":0.8200000000000006},{"rt":1203.3999999761581,"stimulus":"\n                    <p><b>Action: <em>harvest</em></b></p>\n                    <p>This is the bee that you just saw.</p>\n                    <img src=\"bees-with-color/bee-A1SF.svg\" width=\"200\">\n                    <p><span class=\"greenText\"><b>Successful harvest!</b></span><br>Your pay has increased by $0.02. Your bonus pay is now $0.46.</p>\n            ","response":0,"trial_type":"html-button-response","trial_index":60,"time_elapsed":327333,"internal_node_id":"0.0-4.0-1.24","subject_id":"60ba349d21c7acbaaabc36dd","study_id":"6197b3f67c2b5cd3b6d9596a","session_id":"619be3210778af80abd78ec0","condition":"contingent","relevant_dimensions":["antennae","legs"],"bee_group":{"antennae":"B","wings":"X","pattern":"X","legs":"F"},"bonus":0.8200000000000006},{"rt":1408.8000000715256,"stimulus":"bees-with-color/bee-A1DM.svg","response":1,"trial_type":"image-button-response","trial_index":61,"time_elapsed":328743,"internal_node_id":"0.0-4.0-0.25","subject_id":"60ba349d21c7acbaaabc36dd","study_id":"6197b3f67c2b5cd3b6d9596a","session_id":"619be3210778af80abd78ec0","condition":"contingent","relevant_dimensions":["antennae","legs"],"bee_group":{"antennae":"B","wings":"X","pattern":"X","legs":"F"},"action":"avoid","summary":"bad-avoid","bonus":0.8200000000000006},{"rt":1712.7000000476837,"stimulus":"\n                    <p><b>Action: <em>avoid</em></b></p>\n                    <p>This is the bee that you just saw.</p>\n                    <img src=\"bees-with-color/bee-A1DM.svg\" width=\"200\">\n                    <p><br>Your bonus pay is unchanged, and remains at $0.46.</p>\n            ","response":0,"trial_type":"html-button-response","trial_index":62,"time_elapsed":330456,"internal_node_id":"0.0-4.0-1.25","subject_id":"60ba349d21c7acbaaabc36dd","study_id":"6197b3f67c2b5cd3b6d9596a","session_id":"619be3210778af80abd78ec0","condition":"contingent","relevant_dimensions":["antennae","legs"],"bee_group":{"antennae":"B","wings":"X","pattern":"X","legs":"F"},"bonus":0.8200000000000006},{"rt":1043.3999999761581,"stimulus":"bees-with-color/bee-B2SM.svg","response":0,"trial_type":"image-button-response","trial_index":63,"time_elapsed":331501,"internal_node_id":"0.0-4.0-0.26","subject_id":"60ba349d21c7acbaaabc36dd","study_id":"6197b3f67c2b5cd3b6d9596a","session_id":"619be3210778af80abd78ec0","condition":"contingent","relevant_dimensions":["antennae","legs"],"bee_group":{"antennae":"B","wings":"X","pattern":"X","legs":"F"},"action":"harvest","summary":"good-harvest","bonus":0.8200000000000006},{"rt":1259.8000000715256,"stimulus":"\n                    <p><b>Action: <em>harvest</em></b></p>\n                    <p>This is the bee that you just saw.</p>\n                    <img src=\"bees-with-color/bee-B2SM.svg\" width=\"200\">\n                    <p><span class=\"greenText\"><b>Successful harvest!</b></span><br>Your pay has increased by $0.02. Your bonus pay is now $0.48.</p>\n            ","response":0,"trial_type":"html-button-response","trial_index":64,"time_elapsed":332761,"internal_node_id":"0.0-4.0-1.26","subject_id":"60ba349d21c7acbaaabc36dd","study_id":"6197b3f67c2b5cd3b6d9596a","session_id":"619be3210778af80abd78ec0","condition":"contingent","relevant_dimensions":["antennae","legs"],"bee_group":{"antennae":"B","wings":"X","pattern":"X","legs":"F"},"bonus":0.8200000000000006},{"rt":1011.6000000238419,"stimulus":"bees-with-color/bee-A2SF.svg","response":0,"trial_type":"image-button-response","trial_index":65,"time_elapsed":333774,"internal_node_id":"0.0-4.0-0.27","subject_id":"60ba349d21c7acbaaabc36dd","study_id":"6197b3f67c2b5cd3b6d9596a","session_id":"619be3210778af80abd78ec0","condition":"contingent","relevant_dimensions":["antennae","legs"],"bee_group":{"antennae":"B","wings":"X","pattern":"X","legs":"F"},"action":"harvest","summary":"good-harvest","bonus":0.8200000000000006},{"rt":1229.8999999761581,"stimulus":"\n                    <p><b>Action: <em>harvest</em></b></p>\n                    <p>This is the bee that you just saw.</p>\n                    <img src=\"bees-with-color/bee-A2SF.svg\" width=\"200\">\n                    <p><span class=\"greenText\"><b>Successful harvest!</b></span><br>Your pay has increased by $0.02. Your bonus pay is now $0.50.</p>\n            ","response":0,"trial_type":"html-button-response","trial_index":66,"time_elapsed":335005,"internal_node_id":"0.0-4.0-1.27","subject_id":"60ba349d21c7acbaaabc36dd","study_id":"6197b3f67c2b5cd3b6d9596a","session_id":"619be3210778af80abd78ec0","condition":"contingent","relevant_dimensions":["antennae","legs"],"bee_group":{"antennae":"B","wings":"X","pattern":"X","legs":"F"},"bonus":0.8200000000000006},{"rt":1027.9000000953674,"stimulus":"bees-with-color/bee-A2DF.svg","response":1,"trial_type":"image-button-response","trial_index":67,"time_elapsed":336034,"internal_node_id":"0.0-4.0-0.28","subject_id":"60ba349d21c7acbaaabc36dd","study_id":"6197b3f67c2b5cd3b6d9596a","session_id":"619be3210778af80abd78ec0","condition":"contingent","relevant_dimensions":["antennae","legs"],"bee_group":{"antennae":"B","wings":"X","pattern":"X","legs":"F"},"action":"avoid","summary":"bad-avoid","bonus":0.8200000000000006},{"rt":1045.8999999761581,"stimulus":"\n                    <p><b>Action: <em>avoid</em></b></p>\n                    <p>This is the bee that you just saw.</p>\n                    <img src=\"bees-with-color/bee-A2DF.svg\" width=\"200\">\n                    <p><br>Your bonus pay is unchanged, and remains at $0.50.</p>\n            ","response":0,"trial_type":"html-button-response","trial_index":68,"time_elapsed":337081,"internal_node_id":"0.0-4.0-1.28","subject_id":"60ba349d21c7acbaaabc36dd","study_id":"6197b3f67c2b5cd3b6d9596a","session_id":"619be3210778af80abd78ec0","condition":"contingent","relevant_dimensions":["antennae","legs"],"bee_group":{"antennae":"B","wings":"X","pattern":"X","legs":"F"},"bonus":0.8200000000000006},{"rt":1024.3999999761581,"stimulus":"bees-with-color/bee-B1DF.svg","response":1,"trial_type":"image-button-response","trial_index":69,"time_elapsed":338107,"internal_node_id":"0.0-4.0-0.29","subject_id":"60ba349d21c7acbaaabc36dd","study_id":"6197b3f67c2b5cd3b6d9596a","session_id":"619be3210778af80abd78ec0","condition":"contingent","relevant_dimensions":["antennae","legs"],"bee_group":{"antennae":"B","wings":"X","pattern":"X","legs":"F"},"action":"avoid","summary":"good-avoid","bonus":0.8200000000000006},{"rt":1030,"stimulus":"\n                    <p><b>Action: <em>avoid</em></b></p>\n                    <p>This is the bee that you just saw.</p>\n                    <img src=\"bees-with-color/bee-B1DF.svg\" width=\"200\">\n                    <p><br>Your bonus pay is unchanged, and remains at $0.50.</p>\n            ","response":0,"trial_type":"html-button-response","trial_index":70,"time_elapsed":339138,"internal_node_id":"0.0-4.0-1.29","subject_id":"60ba349d21c7acbaaabc36dd","study_id":"6197b3f67c2b5cd3b6d9596a","session_id":"619be3210778af80abd78ec0","condition":"contingent","relevant_dimensions":["antennae","legs"],"bee_group":{"antennae":"B","wings":"X","pattern":"X","legs":"F"},"bonus":0.8200000000000006},{"rt":1074.2000000476837,"stimulus":"bees-with-color/bee-B1SF.svg","response":1,"trial_type":"image-button-response","trial_index":71,"time_elapsed":340213,"internal_node_id":"0.0-4.0-0.30","subject_id":"60ba349d21c7acbaaabc36dd","study_id":"6197b3f67c2b5cd3b6d9596a","session_id":"619be3210778af80abd78ec0","condition":"contingent","relevant_dimensions":["antennae","legs"],"bee_group":{"antennae":"B","wings":"X","pattern":"X","legs":"F"},"action":"avoid","summary":"good-avoid","bonus":0.8200000000000006},{"rt":954.1000000238419,"stimulus":"\n                    <p><b>Action: <em>avoid</em></b></p>\n                    <p>This is the bee that you just saw.</p>\n                    <img src=\"bees-with-color/bee-B1SF.svg\" width=\"200\">\n                    <p><br>Your bonus pay is unchanged, and remains at $0.50.</p>\n            ","response":0,"trial_type":"html-button-response","trial_index":72,"time_elapsed":341168,"internal_node_id":"0.0-4.0-1.30","subject_id":"60ba349d21c7acbaaabc36dd","study_id":"6197b3f67c2b5cd3b6d9596a","session_id":"619be3210778af80abd78ec0","condition":"contingent","relevant_dimensions":["antennae","legs"],"bee_group":{"antennae":"B","wings":"X","pattern":"X","legs":"F"},"bonus":0.8200000000000006},{"rt":887.6000000238419,"stimulus":"bees-with-color/bee-A2DM.svg","response":1,"trial_type":"image-button-response","trial_index":73,"time_elapsed":342057,"internal_node_id":"0.0-4.0-0.31","subject_id":"60ba349d21c7acbaaabc36dd","study_id":"6197b3f67c2b5cd3b6d9596a","session_id":"619be3210778af80abd78ec0","condition":"contingent","relevant_dimensions":["antennae","legs"],"bee_group":{"antennae":"B","wings":"X","pattern":"X","legs":"F"},"action":"avoid","summary":"bad-avoid","bonus":0.8200000000000006},{"rt":1397.8000000715256,"stimulus":"\n                    <p><b>Action: <em>avoid</em></b></p>\n                    <p>This is the bee that you just saw.</p>\n                    <img src=\"bees-with-color/bee-A2DM.svg\" width=\"200\">\n                    <p><br>Your bonus pay is unchanged, and remains at $0.50.</p>\n            ","response":0,"trial_type":"html-button-response","trial_index":74,"time_elapsed":343456,"internal_node_id":"0.0-4.0-1.31","subject_id":"60ba349d21c7acbaaabc36dd","study_id":"6197b3f67c2b5cd3b6d9596a","session_id":"619be3210778af80abd78ec0","condition":"contingent","relevant_dimensions":["antennae","legs"],"bee_group":{"antennae":"B","wings":"X","pattern":"X","legs":"F"},"bonus":0.8200000000000006},{"rt":932,"stimulus":"bees-with-color/bee-B1DF.svg","response":1,"trial_type":"image-button-response","trial_index":75,"time_elapsed":344389,"internal_node_id":"0.0-4.0-0.32","subject_id":"60ba349d21c7acbaaabc36dd","study_id":"6197b3f67c2b5cd3b6d9596a","session_id":"619be3210778af80abd78ec0","condition":"contingent","relevant_dimensions":["antennae","legs"],"bee_group":{"antennae":"B","wings":"X","pattern":"X","legs":"F"},"action":"avoid","summary":"good-avoid","bonus":0.8200000000000006},{"rt":921.9000000953674,"stimulus":"\n                    <p><b>Action: <em>avoid</em></b></p>\n                    <p>This is the bee that you just saw.</p>\n                    <img src=\"bees-with-color/bee-B1DF.svg\" width=\"200\">\n                    <p><br>Your bonus pay is unchanged, and remains at $0.50.</p>\n            ","response":0,"trial_type":"html-button-response","trial_index":76,"time_elapsed":345312,"internal_node_id":"0.0-4.0-1.32","subject_id":"60ba349d21c7acbaaabc36dd","study_id":"6197b3f67c2b5cd3b6d9596a","session_id":"619be3210778af80abd78ec0","condition":"contingent","relevant_dimensions":["antennae","legs"],"bee_group":{"antennae":"B","wings":"X","pattern":"X","legs":"F"},"bonus":0.8200000000000006},{"rt":900.0999999046326,"stimulus":"bees-with-color/bee-B2DM.svg","response":1,"trial_type":"image-button-response","trial_index":77,"time_elapsed":346213,"internal_node_id":"0.0-4.0-0.33","subject_id":"60ba349d21c7acbaaabc36dd","study_id":"6197b3f67c2b5cd3b6d9596a","session_id":"619be3210778af80abd78ec0","condition":"contingent","relevant_dimensions":["antennae","legs"],"bee_group":{"antennae":"B","wings":"X","pattern":"X","legs":"F"},"action":"avoid","summary":"bad-avoid","bonus":0.8200000000000006},{"rt":982,"stimulus":"\n                    <p><b>Action: <em>avoid</em></b></p>\n                    <p>This is the bee that you just saw.</p>\n                    <img src=\"bees-with-color/bee-B2DM.svg\" width=\"200\">\n                    <p><br>Your bonus pay is unchanged, and remains at $0.50.</p>\n            ","response":0,"trial_type":"html-button-response","trial_index":78,"time_elapsed":347196,"internal_node_id":"0.0-4.0-1.33","subject_id":"60ba349d21c7acbaaabc36dd","study_id":"6197b3f67c2b5cd3b6d9596a","session_id":"619be3210778af80abd78ec0","condition":"contingent","relevant_dimensions":["antennae","legs"],"bee_group":{"antennae":"B","wings":"X","pattern":"X","legs":"F"},"bonus":0.8200000000000006},{"rt":853.7999999523163,"stimulus":"bees-with-color/bee-A1SF.svg","response":1,"trial_type":"image-button-response","trial_index":79,"time_elapsed":348051,"internal_node_id":"0.0-4.0-0.34","subject_id":"60ba349d21c7acbaaabc36dd","study_id":"6197b3f67c2b5cd3b6d9596a","session_id":"619be3210778af80abd78ec0","condition":"contingent","relevant_dimensions":["antennae","legs"],"bee_group":{"antennae":"B","wings":"X","pattern":"X","legs":"F"},"action":"avoid","summary":"bad-avoid","bonus":0.8200000000000006},{"rt":945.6000000238419,"stimulus":"\n                    <p><b>Action: <em>avoid</em></b></p>\n                    <p>This is the bee that you just saw.</p>\n                    <img src=\"bees-with-color/bee-A1SF.svg\" width=\"200\">\n                    <p><br>Your bonus pay is unchanged, and remains at $0.50.</p>\n            ","response":0,"trial_type":"html-button-response","trial_index":80,"time_elapsed":348998,"internal_node_id":"0.0-4.0-1.34","subject_id":"60ba349d21c7acbaaabc36dd","study_id":"6197b3f67c2b5cd3b6d9596a","session_id":"619be3210778af80abd78ec0","condition":"contingent","relevant_dimensions":["antennae","legs"],"bee_group":{"antennae":"B","wings":"X","pattern":"X","legs":"F"},"bonus":0.8200000000000006},{"rt":1199.1000000238419,"stimulus":"bees-with-color/bee-B2SM.svg","response":1,"trial_type":"image-button-response","trial_index":81,"time_elapsed":350199,"internal_node_id":"0.0-4.0-0.35","subject_id":"60ba349d21c7acbaaabc36dd","study_id":"6197b3f67c2b5cd3b6d9596a","session_id":"619be3210778af80abd78ec0","condition":"contingent","relevant_dimensions":["antennae","legs"],"bee_group":{"antennae":"B","wings":"X","pattern":"X","legs":"F"},"action":"avoid","summary":"bad-avoid","bonus":0.8200000000000006},{"rt":966.2000000476837,"stimulus":"\n                    <p><b>Action: <em>avoid</em></b></p>\n                    <p>This is the bee that you just saw.</p>\n                    <img src=\"bees-with-color/bee-B2SM.svg\" width=\"200\">\n                    <p><br>Your bonus pay is unchanged, and remains at $0.50.</p>\n            ","response":0,"trial_type":"html-button-response","trial_index":82,"time_elapsed":351167,"internal_node_id":"0.0-4.0-1.35","subject_id":"60ba349d21c7acbaaabc36dd","study_id":"6197b3f67c2b5cd3b6d9596a","session_id":"619be3210778af80abd78ec0","condition":"contingent","relevant_dimensions":["antennae","legs"],"bee_group":{"antennae":"B","wings":"X","pattern":"X","legs":"F"},"bonus":0.8200000000000006},{"rt":1899.3000000715256,"stimulus":"bees-with-color/bee-A1DF.svg","response":0,"trial_type":"image-button-response","trial_index":83,"time_elapsed":353067,"internal_node_id":"0.0-4.0-0.36","subject_id":"60ba349d21c7acbaaabc36dd","study_id":"6197b3f67c2b5cd3b6d9596a","session_id":"619be3210778af80abd78ec0","condition":"contingent","relevant_dimensions":["antennae","legs"],"bee_group":{"antennae":"B","wings":"X","pattern":"X","legs":"F"},"action":"harvest","summary":"good-harvest","bonus":0.8200000000000006},{"rt":1026.8999999761581,"stimulus":"\n                    <p><b>Action: <em>harvest</em></b></p>\n                    <p>This is the bee that you just saw.</p>\n                    <img src=\"bees-with-color/bee-A1DF.svg\" width=\"200\">\n                    <p><span class=\"greenText\"><b>Successful harvest!</b></span><br>Your pay has increased by $0.02. Your bonus pay is now $0.52.</p>\n            ","response":0,"trial_type":"html-button-response","trial_index":84,"time_elapsed":354095,"internal_node_id":"0.0-4.0-1.36","subject_id":"60ba349d21c7acbaaabc36dd","study_id":"6197b3f67c2b5cd3b6d9596a","session_id":"619be3210778af80abd78ec0","condition":"contingent","relevant_dimensions":["antennae","legs"],"bee_group":{"antennae":"B","wings":"X","pattern":"X","legs":"F"},"bonus":0.8200000000000006},{"rt":870.6999999284744,"stimulus":"bees-with-color/bee-B1SM.svg","response":1,"trial_type":"image-button-response","trial_index":85,"time_elapsed":354966,"internal_node_id":"0.0-4.0-0.37","subject_id":"60ba349d21c7acbaaabc36dd","study_id":"6197b3f67c2b5cd3b6d9596a","session_id":"619be3210778af80abd78ec0","condition":"contingent","relevant_dimensions":["antennae","legs"],"bee_group":{"antennae":"B","wings":"X","pattern":"X","legs":"F"},"action":"avoid","summary":"bad-avoid","bonus":0.8200000000000006},{"rt":901.1000000238419,"stimulus":"\n                    <p><b>Action: <em>avoid</em></b></p>\n                    <p>This is the bee that you just saw.</p>\n                    <img src=\"bees-with-color/bee-B1SM.svg\" width=\"200\">\n                    <p><br>Your bonus pay is unchanged, and remains at $0.52.</p>\n            ","response":0,"trial_type":"html-button-response","trial_index":86,"time_elapsed":355869,"internal_node_id":"0.0-4.0-1.37","subject_id":"60ba349d21c7acbaaabc36dd","study_id":"6197b3f67c2b5cd3b6d9596a","session_id":"619be3210778af80abd78ec0","condition":"contingent","relevant_dimensions":["antennae","legs"],"bee_group":{"antennae":"B","wings":"X","pattern":"X","legs":"F"},"bonus":0.8200000000000006},{"rt":1212.8000000715256,"stimulus":"bees-with-color/bee-B2DF.svg","response":1,"trial_type":"image-button-response","trial_index":87,"time_elapsed":357082,"internal_node_id":"0.0-4.0-0.38","subject_id":"60ba349d21c7acbaaabc36dd","study_id":"6197b3f67c2b5cd3b6d9596a","session_id":"619be3210778af80abd78ec0","condition":"contingent","relevant_dimensions":["antennae","legs"],"bee_group":{"antennae":"B","wings":"X","pattern":"X","legs":"F"},"action":"avoid","summary":"good-avoid","bonus":0.8200000000000006},{"rt":919.1000000238419,"stimulus":"\n                    <p><b>Action: <em>avoid</em></b></p>\n                    <p>This is the bee that you just saw.</p>\n                    <img src=\"bees-with-color/bee-B2DF.svg\" width=\"200\">\n                    <p><br>Your bonus pay is unchanged, and remains at $0.52.</p>\n            ","response":0,"trial_type":"html-button-response","trial_index":88,"time_elapsed":358002,"internal_node_id":"0.0-4.0-1.38","subject_id":"60ba349d21c7acbaaabc36dd","study_id":"6197b3f67c2b5cd3b6d9596a","session_id":"619be3210778af80abd78ec0","condition":"contingent","relevant_dimensions":["antennae","legs"],"bee_group":{"antennae":"B","wings":"X","pattern":"X","legs":"F"},"bonus":0.8200000000000006},{"rt":1150.5,"stimulus":"bees-with-color/bee-A2DF.svg","response":0,"trial_type":"image-button-response","trial_index":89,"time_elapsed":359154,"internal_node_id":"0.0-4.0-0.39","subject_id":"60ba349d21c7acbaaabc36dd","study_id":"6197b3f67c2b5cd3b6d9596a","session_id":"619be3210778af80abd78ec0","condition":"contingent","relevant_dimensions":["antennae","legs"],"bee_group":{"antennae":"B","wings":"X","pattern":"X","legs":"F"},"action":"harvest","summary":"good-harvest","bonus":0.8200000000000006},{"rt":1076.7000000476837,"stimulus":"\n                    <p><b>Action: <em>harvest</em></b></p>\n                    <p>This is the bee that you just saw.</p>\n                    <img src=\"bees-with-color/bee-A2DF.svg\" width=\"200\">\n                    <p><span class=\"greenText\"><b>Successful harvest!</b></span><br>Your pay has increased by $0.02. Your bonus pay is now $0.54.</p>\n            ","response":0,"trial_type":"html-button-response","trial_index":90,"time_elapsed":360231,"internal_node_id":"0.0-4.0-1.39","subject_id":"60ba349d21c7acbaaabc36dd","study_id":"6197b3f67c2b5cd3b6d9596a","session_id":"619be3210778af80abd78ec0","condition":"contingent","relevant_dimensions":["antennae","legs"],"bee_group":{"antennae":"B","wings":"X","pattern":"X","legs":"F"},"bonus":0.8200000000000006},{"rt":947.8999999761581,"stimulus":"bees-with-color/bee-A1SM.svg","response":1,"trial_type":"image-button-response","trial_index":91,"time_elapsed":361180,"internal_node_id":"0.0-4.0-0.40","subject_id":"60ba349d21c7acbaaabc36dd","study_id":"6197b3f67c2b5cd3b6d9596a","session_id":"619be3210778af80abd78ec0","condition":"contingent","relevant_dimensions":["antennae","legs"],"bee_group":{"antennae":"B","wings":"X","pattern":"X","legs":"F"},"action":"avoid","summary":"bad-avoid","bonus":0.8200000000000006},{"rt":903.5,"stimulus":"\n                    <p><b>Action: <em>avoid</em></b></p>\n                    <p>This is the bee that you just saw.</p>\n                    <img src=\"bees-with-color/bee-A1SM.svg\" width=\"200\">\n                    <p><br>Your bonus pay is unchanged, and remains at $0.54.</p>\n            ","response":0,"trial_type":"html-button-response","trial_index":92,"time_elapsed":362084,"internal_node_id":"0.0-4.0-1.40","subject_id":"60ba349d21c7acbaaabc36dd","study_id":"6197b3f67c2b5cd3b6d9596a","session_id":"619be3210778af80abd78ec0","condition":"contingent","relevant_dimensions":["antennae","legs"],"bee_group":{"antennae":"B","wings":"X","pattern":"X","legs":"F"},"bonus":0.8200000000000006},{"rt":1010.5,"stimulus":"bees-with-color/bee-B1DM.svg","response":1,"trial_type":"image-button-response","trial_index":93,"time_elapsed":363096,"internal_node_id":"0.0-4.0-0.41","subject_id":"60ba349d21c7acbaaabc36dd","study_id":"6197b3f67c2b5cd3b6d9596a","session_id":"619be3210778af80abd78ec0","condition":"contingent","relevant_dimensions":["antennae","legs"],"bee_group":{"antennae":"B","wings":"X","pattern":"X","legs":"F"},"action":"avoid","summary":"bad-avoid","bonus":0.8200000000000006},{"rt":779.4000000953674,"stimulus":"\n                    <p><b>Action: <em>avoid</em></b></p>\n                    <p>This is the bee that you just saw.</p>\n                    <img src=\"bees-with-color/bee-B1DM.svg\" width=\"200\">\n                    <p><br>Your bonus pay is unchanged, and remains at $0.54.</p>\n            ","response":0,"trial_type":"html-button-response","trial_index":94,"time_elapsed":363876,"internal_node_id":"0.0-4.0-1.41","subject_id":"60ba349d21c7acbaaabc36dd","study_id":"6197b3f67c2b5cd3b6d9596a","session_id":"619be3210778af80abd78ec0","condition":"contingent","relevant_dimensions":["antennae","legs"],"bee_group":{"antennae":"B","wings":"X","pattern":"X","legs":"F"},"bonus":0.8200000000000006},{"rt":949.1999999284744,"stimulus":"bees-with-color/bee-A2SF.svg","response":1,"trial_type":"image-button-response","trial_index":95,"time_elapsed":364827,"internal_node_id":"0.0-4.0-0.42","subject_id":"60ba349d21c7acbaaabc36dd","study_id":"6197b3f67c2b5cd3b6d9596a","session_id":"619be3210778af80abd78ec0","condition":"contingent","relevant_dimensions":["antennae","legs"],"bee_group":{"antennae":"B","wings":"X","pattern":"X","legs":"F"},"action":"avoid","summary":"bad-avoid","bonus":0.8200000000000006},{"rt":970.5,"stimulus":"\n                    <p><b>Action: <em>avoid</em></b></p>\n                    <p>This is the bee that you just saw.</p>\n                    <img src=\"bees-with-color/bee-A2SF.svg\" width=\"200\">\n                    <p><br>Your bonus pay is unchanged, and remains at $0.54.</p>\n            ","response":0,"trial_type":"html-button-response","trial_index":96,"time_elapsed":365798,"internal_node_id":"0.0-4.0-1.42","subject_id":"60ba349d21c7acbaaabc36dd","study_id":"6197b3f67c2b5cd3b6d9596a","session_id":"619be3210778af80abd78ec0","condition":"contingent","relevant_dimensions":["antennae","legs"],"bee_group":{"antennae":"B","wings":"X","pattern":"X","legs":"F"},"bonus":0.8200000000000006},{"rt":920.7999999523163,"stimulus":"bees-with-color/bee-B1SF.svg","response":1,"trial_type":"image-button-response","trial_index":97,"time_elapsed":366720,"internal_node_id":"0.0-4.0-0.43","subject_id":"60ba349d21c7acbaaabc36dd","study_id":"6197b3f67c2b5cd3b6d9596a","session_id":"619be3210778af80abd78ec0","condition":"contingent","relevant_dimensions":["antennae","legs"],"bee_group":{"antennae":"B","wings":"X","pattern":"X","legs":"F"},"action":"avoid","summary":"good-avoid","bonus":0.8200000000000006},{"rt":825.6000000238419,"stimulus":"\n                    <p><b>Action: <em>avoid</em></b></p>\n                    <p>This is the bee that you just saw.</p>\n                    <img src=\"bees-with-color/bee-B1SF.svg\" width=\"200\">\n                    <p><br>Your bonus pay is unchanged, and remains at $0.54.</p>\n            ","response":0,"trial_type":"html-button-response","trial_index":98,"time_elapsed":367546,"internal_node_id":"0.0-4.0-1.43","subject_id":"60ba349d21c7acbaaabc36dd","study_id":"6197b3f67c2b5cd3b6d9596a","session_id":"619be3210778af80abd78ec0","condition":"contingent","relevant_dimensions":["antennae","legs"],"bee_group":{"antennae":"B","wings":"X","pattern":"X","legs":"F"},"bonus":0.8200000000000006},{"rt":980,"stimulus":"bees-with-color/bee-A2SM.svg","response":1,"trial_type":"image-button-response","trial_index":99,"time_elapsed":368528,"internal_node_id":"0.0-4.0-0.44","subject_id":"60ba349d21c7acbaaabc36dd","study_id":"6197b3f67c2b5cd3b6d9596a","session_id":"619be3210778af80abd78ec0","condition":"contingent","relevant_dimensions":["antennae","legs"],"bee_group":{"antennae":"B","wings":"X","pattern":"X","legs":"F"},"action":"avoid","summary":"bad-avoid","bonus":0.8200000000000006},{"rt":905.7000000476837,"stimulus":"\n                    <p><b>Action: <em>avoid</em></b></p>\n                    <p>This is the bee that you just saw.</p>\n                    <img src=\"bees-with-color/bee-A2SM.svg\" width=\"200\">\n                    <p><br>Your bonus pay is unchanged, and remains at $0.54.</p>\n            ","response":0,"trial_type":"html-button-response","trial_index":100,"time_elapsed":369434,"internal_node_id":"0.0-4.0-1.44","subject_id":"60ba349d21c7acbaaabc36dd","study_id":"6197b3f67c2b5cd3b6d9596a","session_id":"619be3210778af80abd78ec0","condition":"contingent","relevant_dimensions":["antennae","legs"],"bee_group":{"antennae":"B","wings":"X","pattern":"X","legs":"F"},"bonus":0.8200000000000006},{"rt":1278.5,"stimulus":"bees-with-color/bee-A2DM.svg","response":0,"trial_type":"image-button-response","trial_index":101,"time_elapsed":370714,"internal_node_id":"0.0-4.0-0.45","subject_id":"60ba349d21c7acbaaabc36dd","study_id":"6197b3f67c2b5cd3b6d9596a","session_id":"619be3210778af80abd78ec0","condition":"contingent","relevant_dimensions":["antennae","legs"],"bee_group":{"antennae":"B","wings":"X","pattern":"X","legs":"F"},"action":"harvest","summary":"good-harvest","bonus":0.8200000000000006},{"rt":949.3999999761581,"stimulus":"\n                    <p><b>Action: <em>harvest</em></b></p>\n                    <p>This is the bee that you just saw.</p>\n                    <img src=\"bees-with-color/bee-A2DM.svg\" width=\"200\">\n                    <p><span class=\"greenText\"><b>Successful harvest!</b></span><br>Your pay has increased by $0.02. Your bonus pay is now $0.56.</p>\n            ","response":0,"trial_type":"html-button-response","trial_index":102,"time_elapsed":371664,"internal_node_id":"0.0-4.0-1.45","subject_id":"60ba349d21c7acbaaabc36dd","study_id":"6197b3f67c2b5cd3b6d9596a","session_id":"619be3210778af80abd78ec0","condition":"contingent","relevant_dimensions":["antennae","legs"],"bee_group":{"antennae":"B","wings":"X","pattern":"X","legs":"F"},"bonus":0.8200000000000006},{"rt":838.7999999523163,"stimulus":"bees-with-color/bee-B2SF.svg","response":1,"trial_type":"image-button-response","trial_index":103,"time_elapsed":372504,"internal_node_id":"0.0-4.0-0.46","subject_id":"60ba349d21c7acbaaabc36dd","study_id":"6197b3f67c2b5cd3b6d9596a","session_id":"619be3210778af80abd78ec0","condition":"contingent","relevant_dimensions":["antennae","legs"],"bee_group":{"antennae":"B","wings":"X","pattern":"X","legs":"F"},"action":"avoid","summary":"good-avoid","bonus":0.8200000000000006},{"rt":1052.3999999761581,"stimulus":"\n                    <p><b>Action: <em>avoid</em></b></p>\n                    <p>This is the bee that you just saw.</p>\n                    <img src=\"bees-with-color/bee-B2SF.svg\" width=\"200\">\n                    <p><br>Your bonus pay is unchanged, and remains at $0.56.</p>\n            ","response":0,"trial_type":"html-button-response","trial_index":104,"time_elapsed":373557,"internal_node_id":"0.0-4.0-1.46","subject_id":"60ba349d21c7acbaaabc36dd","study_id":"6197b3f67c2b5cd3b6d9596a","session_id":"619be3210778af80abd78ec0","condition":"contingent","relevant_dimensions":["antennae","legs"],"bee_group":{"antennae":"B","wings":"X","pattern":"X","legs":"F"},"bonus":0.8200000000000006},{"rt":1504.7999999523163,"stimulus":"bees-with-color/bee-A1DM.svg","response":0,"trial_type":"image-button-response","trial_index":105,"time_elapsed":375063,"internal_node_id":"0.0-4.0-0.47","subject_id":"60ba349d21c7acbaaabc36dd","study_id":"6197b3f67c2b5cd3b6d9596a","session_id":"619be3210778af80abd78ec0","condition":"contingent","relevant_dimensions":["antennae","legs"],"bee_group":{"antennae":"B","wings":"X","pattern":"X","legs":"F"},"action":"harvest","summary":"good-harvest","bonus":0.8200000000000006},{"rt":995.5,"stimulus":"\n                    <p><b>Action: <em>harvest</em></b></p>\n                    <p>This is the bee that you just saw.</p>\n                    <img src=\"bees-with-color/bee-A1DM.svg\" width=\"200\">\n                    <p><span class=\"greenText\"><b>Successful harvest!</b></span><br>Your pay has increased by $0.02. Your bonus pay is now $0.58.</p>\n            ","response":0,"trial_type":"html-button-response","trial_index":106,"time_elapsed":376060,"internal_node_id":"0.0-4.0-1.47","subject_id":"60ba349d21c7acbaaabc36dd","study_id":"6197b3f67c2b5cd3b6d9596a","session_id":"619be3210778af80abd78ec0","condition":"contingent","relevant_dimensions":["antennae","legs"],"bee_group":{"antennae":"B","wings":"X","pattern":"X","legs":"F"},"bonus":0.8200000000000006},{"rt":871.5,"stimulus":"bees-with-color/bee-B2SF.svg","response":1,"trial_type":"image-button-response","trial_index":107,"time_elapsed":376933,"internal_node_id":"0.0-4.0-0.48","subject_id":"60ba349d21c7acbaaabc36dd","study_id":"6197b3f67c2b5cd3b6d9596a","session_id":"619be3210778af80abd78ec0","condition":"contingent","relevant_dimensions":["antennae","legs"],"bee_group":{"antennae":"B","wings":"X","pattern":"X","legs":"F"},"action":"avoid","summary":"good-avoid","bonus":0.8200000000000006},{"rt":914.2999999523163,"stimulus":"\n                    <p><b>Action: <em>avoid</em></b></p>\n                    <p>This is the bee that you just saw.</p>\n                    <img src=\"bees-with-color/bee-B2SF.svg\" width=\"200\">\n                    <p><br>Your bonus pay is unchanged, and remains at $0.58.</p>\n            ","response":0,"trial_type":"html-button-response","trial_index":108,"time_elapsed":377848,"internal_node_id":"0.0-4.0-1.48","subject_id":"60ba349d21c7acbaaabc36dd","study_id":"6197b3f67c2b5cd3b6d9596a","session_id":"619be3210778af80abd78ec0","condition":"contingent","relevant_dimensions":["antennae","legs"],"bee_group":{"antennae":"B","wings":"X","pattern":"X","legs":"F"},"bonus":0.8200000000000006},{"rt":1275.3000000715256,"stimulus":"bees-with-color/bee-A1DF.svg","response":0,"trial_type":"image-button-response","trial_index":109,"time_elapsed":379124,"internal_node_id":"0.0-4.0-0.49","subject_id":"60ba349d21c7acbaaabc36dd","study_id":"6197b3f67c2b5cd3b6d9596a","session_id":"619be3210778af80abd78ec0","condition":"contingent","relevant_dimensions":["antennae","legs"],"bee_group":{"antennae":"B","wings":"X","pattern":"X","legs":"F"},"action":"harvest","summary":"good-harvest","bonus":0.8200000000000006},{"rt":886.7999999523163,"stimulus":"\n                    <p><b>Action: <em>harvest</em></b></p>\n                    <p>This is the bee that you just saw.</p>\n                    <img src=\"bees-with-color/bee-A1DF.svg\" width=\"200\">\n                    <p><span class=\"greenText\"><b>Successful harvest!</b></span><br>Your pay has increased by $0.02. Your bonus pay is now $0.60.</p>\n            ","response":0,"trial_type":"html-button-response","trial_index":110,"time_elapsed":380012,"internal_node_id":"0.0-4.0-1.49","subject_id":"60ba349d21c7acbaaabc36dd","study_id":"6197b3f67c2b5cd3b6d9596a","session_id":"619be3210778af80abd78ec0","condition":"contingent","relevant_dimensions":["antennae","legs"],"bee_group":{"antennae":"B","wings":"X","pattern":"X","legs":"F"},"bonus":0.8200000000000006},{"rt":1156.1000000238419,"stimulus":"bees-with-color/bee-B2SM.svg","response":1,"trial_type":"image-button-response","trial_index":111,"time_elapsed":381169,"internal_node_id":"0.0-4.0-0.50","subject_id":"60ba349d21c7acbaaabc36dd","study_id":"6197b3f67c2b5cd3b6d9596a","session_id":"619be3210778af80abd78ec0","condition":"contingent","relevant_dimensions":["antennae","legs"],"bee_group":{"antennae":"B","wings":"X","pattern":"X","legs":"F"},"action":"avoid","summary":"bad-avoid","bonus":0.8200000000000006},{"rt":840.6000000238419,"stimulus":"\n                    <p><b>Action: <em>avoid</em></b></p>\n                    <p>This is the bee that you just saw.</p>\n                    <img src=\"bees-with-color/bee-B2SM.svg\" width=\"200\">\n                    <p><br>Your bonus pay is unchanged, and remains at $0.60.</p>\n            ","response":0,"trial_type":"html-button-response","trial_index":112,"time_elapsed":382011,"internal_node_id":"0.0-4.0-1.50","subject_id":"60ba349d21c7acbaaabc36dd","study_id":"6197b3f67c2b5cd3b6d9596a","session_id":"619be3210778af80abd78ec0","condition":"contingent","relevant_dimensions":["antennae","legs"],"bee_group":{"antennae":"B","wings":"X","pattern":"X","legs":"F"},"bonus":0.8200000000000006},{"rt":1401.5,"stimulus":"bees-with-color/bee-B2DM.svg","response":1,"trial_type":"image-button-response","trial_index":113,"time_elapsed":383414,"internal_node_id":"0.0-4.0-0.51","subject_id":"60ba349d21c7acbaaabc36dd","study_id":"6197b3f67c2b5cd3b6d9596a","session_id":"619be3210778af80abd78ec0","condition":"contingent","relevant_dimensions":["antennae","legs"],"bee_group":{"antennae":"B","wings":"X","pattern":"X","legs":"F"},"action":"avoid","summary":"bad-avoid","bonus":0.8200000000000006},{"rt":854.7999999523163,"stimulus":"\n                    <p><b>Action: <em>avoid</em></b></p>\n                    <p>This is the bee that you just saw.</p>\n                    <img src=\"bees-with-color/bee-B2DM.svg\" width=\"200\">\n                    <p><br>Your bonus pay is unchanged, and remains at $0.60.</p>\n            ","response":0,"trial_type":"html-button-response","trial_index":114,"time_elapsed":384270,"internal_node_id":"0.0-4.0-1.51","subject_id":"60ba349d21c7acbaaabc36dd","study_id":"6197b3f67c2b5cd3b6d9596a","session_id":"619be3210778af80abd78ec0","condition":"contingent","relevant_dimensions":["antennae","legs"],"bee_group":{"antennae":"B","wings":"X","pattern":"X","legs":"F"},"bonus":0.8200000000000006},{"rt":1138,"stimulus":"bees-with-color/bee-A2DF.svg","response":0,"trial_type":"image-button-response","trial_index":115,"time_elapsed":385409,"internal_node_id":"0.0-4.0-0.52","subject_id":"60ba349d21c7acbaaabc36dd","study_id":"6197b3f67c2b5cd3b6d9596a","session_id":"619be3210778af80abd78ec0","condition":"contingent","relevant_dimensions":["antennae","legs"],"bee_group":{"antennae":"B","wings":"X","pattern":"X","legs":"F"},"action":"harvest","summary":"good-harvest","bonus":0.8200000000000006},{"rt":1076.5999999046326,"stimulus":"\n                    <p><b>Action: <em>harvest</em></b></p>\n                    <p>This is the bee that you just saw.</p>\n                    <img src=\"bees-with-color/bee-A2DF.svg\" width=\"200\">\n                    <p><span class=\"greenText\"><b>Successful harvest!</b></span><br>Your pay has increased by $0.02. Your bonus pay is now $0.62.</p>\n            ","response":0,"trial_type":"html-button-response","trial_index":116,"time_elapsed":386487,"internal_node_id":"0.0-4.0-1.52","subject_id":"60ba349d21c7acbaaabc36dd","study_id":"6197b3f67c2b5cd3b6d9596a","session_id":"619be3210778af80abd78ec0","condition":"contingent","relevant_dimensions":["antennae","legs"],"bee_group":{"antennae":"B","wings":"X","pattern":"X","legs":"F"},"bonus":0.8200000000000006},{"rt":1258.7000000476837,"stimulus":"bees-with-color/bee-B2DF.svg","response":1,"trial_type":"image-button-response","trial_index":117,"time_elapsed":387746,"internal_node_id":"0.0-4.0-0.53","subject_id":"60ba349d21c7acbaaabc36dd","study_id":"6197b3f67c2b5cd3b6d9596a","session_id":"619be3210778af80abd78ec0","condition":"contingent","relevant_dimensions":["antennae","legs"],"bee_group":{"antennae":"B","wings":"X","pattern":"X","legs":"F"},"action":"avoid","summary":"good-avoid","bonus":0.8200000000000006},{"rt":1146.9000000953674,"stimulus":"\n                    <p><b>Action: <em>avoid</em></b></p>\n                    <p>This is the bee that you just saw.</p>\n                    <img src=\"bees-with-color/bee-B2DF.svg\" width=\"200\">\n                    <p><br>Your bonus pay is unchanged, and remains at $0.62.</p>\n            ","response":0,"trial_type":"html-button-response","trial_index":118,"time_elapsed":388894,"internal_node_id":"0.0-4.0-1.53","subject_id":"60ba349d21c7acbaaabc36dd","study_id":"6197b3f67c2b5cd3b6d9596a","session_id":"619be3210778af80abd78ec0","condition":"contingent","relevant_dimensions":["antennae","legs"],"bee_group":{"antennae":"B","wings":"X","pattern":"X","legs":"F"},"bonus":0.8200000000000006},{"rt":1201.3999999761581,"stimulus":"bees-with-color/bee-A2DM.svg","response":0,"trial_type":"image-button-response","trial_index":119,"time_elapsed":390097,"internal_node_id":"0.0-4.0-0.54","subject_id":"60ba349d21c7acbaaabc36dd","study_id":"6197b3f67c2b5cd3b6d9596a","session_id":"619be3210778af80abd78ec0","condition":"contingent","relevant_dimensions":["antennae","legs"],"bee_group":{"antennae":"B","wings":"X","pattern":"X","legs":"F"},"action":"harvest","summary":"good-harvest","bonus":0.8200000000000006},{"rt":1492.8999999761581,"stimulus":"\n                    <p><b>Action: <em>harvest</em></b></p>\n                    <p>This is the bee that you just saw.</p>\n                    <img src=\"bees-with-color/bee-A2DM.svg\" width=\"200\">\n                    <p><span class=\"greenText\"><b>Successful harvest!</b></span><br>Your pay has increased by $0.02. Your bonus pay is now $0.64.</p>\n            ","response":0,"trial_type":"html-button-response","trial_index":120,"time_elapsed":391590,"internal_node_id":"0.0-4.0-1.54","subject_id":"60ba349d21c7acbaaabc36dd","study_id":"6197b3f67c2b5cd3b6d9596a","session_id":"619be3210778af80abd78ec0","condition":"contingent","relevant_dimensions":["antennae","legs"],"bee_group":{"antennae":"B","wings":"X","pattern":"X","legs":"F"},"bonus":0.8200000000000006},{"rt":1025,"stimulus":"bees-with-color/bee-A1SF.svg","response":1,"trial_type":"image-button-response","trial_index":121,"time_elapsed":392616,"internal_node_id":"0.0-4.0-0.55","subject_id":"60ba349d21c7acbaaabc36dd","study_id":"6197b3f67c2b5cd3b6d9596a","session_id":"619be3210778af80abd78ec0","condition":"contingent","relevant_dimensions":["antennae","legs"],"bee_group":{"antennae":"B","wings":"X","pattern":"X","legs":"F"},"action":"avoid","summary":"bad-avoid","bonus":0.8200000000000006},{"rt":899.3000000715256,"stimulus":"\n                    <p><b>Action: <em>avoid</em></b></p>\n                    <p>This is the bee that you just saw.</p>\n                    <img src=\"bees-with-color/bee-A1SF.svg\" width=\"200\">\n                    <p><br>Your bonus pay is unchanged, and remains at $0.64.</p>\n            ","response":0,"trial_type":"html-button-response","trial_index":122,"time_elapsed":393517,"internal_node_id":"0.0-4.0-1.55","subject_id":"60ba349d21c7acbaaabc36dd","study_id":"6197b3f67c2b5cd3b6d9596a","session_id":"619be3210778af80abd78ec0","condition":"contingent","relevant_dimensions":["antennae","legs"],"bee_group":{"antennae":"B","wings":"X","pattern":"X","legs":"F"},"bonus":0.8200000000000006},{"rt":1072.3000000715256,"stimulus":"bees-with-color/bee-B1SF.svg","response":1,"trial_type":"image-button-response","trial_index":123,"time_elapsed":394590,"internal_node_id":"0.0-4.0-0.56","subject_id":"60ba349d21c7acbaaabc36dd","study_id":"6197b3f67c2b5cd3b6d9596a","session_id":"619be3210778af80abd78ec0","condition":"contingent","relevant_dimensions":["antennae","legs"],"bee_group":{"antennae":"B","wings":"X","pattern":"X","legs":"F"},"action":"avoid","summary":"good-avoid","bonus":0.8200000000000006},{"rt":948.6999999284744,"stimulus":"\n                    <p><b>Action: <em>avoid</em></b></p>\n                    <p>This is the bee that you just saw.</p>\n                    <img src=\"bees-with-color/bee-B1SF.svg\" width=\"200\">\n                    <p><br>Your bonus pay is unchanged, and remains at $0.64.</p>\n            ","response":0,"trial_type":"html-button-response","trial_index":124,"time_elapsed":395539,"internal_node_id":"0.0-4.0-1.56","subject_id":"60ba349d21c7acbaaabc36dd","study_id":"6197b3f67c2b5cd3b6d9596a","session_id":"619be3210778af80abd78ec0","condition":"contingent","relevant_dimensions":["antennae","legs"],"bee_group":{"antennae":"B","wings":"X","pattern":"X","legs":"F"},"bonus":0.8200000000000006},{"rt":1262,"stimulus":"bees-with-color/bee-B1DF.svg","response":1,"trial_type":"image-button-response","trial_index":125,"time_elapsed":396802,"internal_node_id":"0.0-4.0-0.57","subject_id":"60ba349d21c7acbaaabc36dd","study_id":"6197b3f67c2b5cd3b6d9596a","session_id":"619be3210778af80abd78ec0","condition":"contingent","relevant_dimensions":["antennae","legs"],"bee_group":{"antennae":"B","wings":"X","pattern":"X","legs":"F"},"action":"avoid","summary":"good-avoid","bonus":0.8200000000000006},{"rt":794.5,"stimulus":"\n                    <p><b>Action: <em>avoid</em></b></p>\n                    <p>This is the bee that you just saw.</p>\n                    <img src=\"bees-with-color/bee-B1DF.svg\" width=\"200\">\n                    <p><br>Your bonus pay is unchanged, and remains at $0.64.</p>\n            ","response":0,"trial_type":"html-button-response","trial_index":126,"time_elapsed":397598,"internal_node_id":"0.0-4.0-1.57","subject_id":"60ba349d21c7acbaaabc36dd","study_id":"6197b3f67c2b5cd3b6d9596a","session_id":"619be3210778af80abd78ec0","condition":"contingent","relevant_dimensions":["antennae","legs"],"bee_group":{"antennae":"B","wings":"X","pattern":"X","legs":"F"},"bonus":0.8200000000000006},{"rt":1706.1999999284744,"stimulus":"bees-with-color/bee-B1DM.svg","response":1,"trial_type":"image-button-response","trial_index":127,"time_elapsed":399305,"internal_node_id":"0.0-4.0-0.58","subject_id":"60ba349d21c7acbaaabc36dd","study_id":"6197b3f67c2b5cd3b6d9596a","session_id":"619be3210778af80abd78ec0","condition":"contingent","relevant_dimensions":["antennae","legs"],"bee_group":{"antennae":"B","wings":"X","pattern":"X","legs":"F"},"action":"avoid","summary":"bad-avoid","bonus":0.8200000000000006},{"rt":1165.5,"stimulus":"\n                    <p><b>Action: <em>avoid</em></b></p>\n                    <p>This is the bee that you just saw.</p>\n                    <img src=\"bees-with-color/bee-B1DM.svg\" width=\"200\">\n                    <p><br>Your bonus pay is unchanged, and remains at $0.64.</p>\n            ","response":0,"trial_type":"html-button-response","trial_index":128,"time_elapsed":400472,"internal_node_id":"0.0-4.0-1.58","subject_id":"60ba349d21c7acbaaabc36dd","study_id":"6197b3f67c2b5cd3b6d9596a","session_id":"619be3210778af80abd78ec0","condition":"contingent","relevant_dimensions":["antennae","legs"],"bee_group":{"antennae":"B","wings":"X","pattern":"X","legs":"F"},"bonus":0.8200000000000006},{"rt":1656.5,"stimulus":"bees-with-color/bee-A2SF.svg","response":1,"trial_type":"image-button-response","trial_index":129,"time_elapsed":402129,"internal_node_id":"0.0-4.0-0.59","subject_id":"60ba349d21c7acbaaabc36dd","study_id":"6197b3f67c2b5cd3b6d9596a","session_id":"619be3210778af80abd78ec0","condition":"contingent","relevant_dimensions":["antennae","legs"],"bee_group":{"antennae":"B","wings":"X","pattern":"X","legs":"F"},"action":"avoid","summary":"bad-avoid","bonus":0.8200000000000006},{"rt":1200.3999999761581,"stimulus":"\n                    <p><b>Action: <em>avoid</em></b></p>\n                    <p>This is the bee that you just saw.</p>\n                    <img src=\"bees-with-color/bee-A2SF.svg\" width=\"200\">\n                    <p><br>Your bonus pay is unchanged, and remains at $0.64.</p>\n            ","response":0,"trial_type":"html-button-response","trial_index":130,"time_elapsed":403330,"internal_node_id":"0.0-4.0-1.59","subject_id":"60ba349d21c7acbaaabc36dd","study_id":"6197b3f67c2b5cd3b6d9596a","session_id":"619be3210778af80abd78ec0","condition":"contingent","relevant_dimensions":["antennae","legs"],"bee_group":{"antennae":"B","wings":"X","pattern":"X","legs":"F"},"bonus":0.8200000000000006},{"rt":1105.5,"stimulus":"bees-with-color/bee-A2SM.svg","response":1,"trial_type":"image-button-response","trial_index":131,"time_elapsed":404437,"internal_node_id":"0.0-4.0-0.60","subject_id":"60ba349d21c7acbaaabc36dd","study_id":"6197b3f67c2b5cd3b6d9596a","session_id":"619be3210778af80abd78ec0","condition":"contingent","relevant_dimensions":["antennae","legs"],"bee_group":{"antennae":"B","wings":"X","pattern":"X","legs":"F"},"action":"avoid","summary":"bad-avoid","bonus":0.8200000000000006},{"rt":1181.6000000238419,"stimulus":"\n                    <p><b>Action: <em>avoid</em></b></p>\n                    <p>This is the bee that you just saw.</p>\n                    <img src=\"bees-with-color/bee-A2SM.svg\" width=\"200\">\n                    <p><br>Your bonus pay is unchanged, and remains at $0.64.</p>\n            ","response":0,"trial_type":"html-button-response","trial_index":132,"time_elapsed":405620,"internal_node_id":"0.0-4.0-1.60","subject_id":"60ba349d21c7acbaaabc36dd","study_id":"6197b3f67c2b5cd3b6d9596a","session_id":"619be3210778af80abd78ec0","condition":"contingent","relevant_dimensions":["antennae","legs"],"bee_group":{"antennae":"B","wings":"X","pattern":"X","legs":"F"},"bonus":0.8200000000000006},{"rt":934.7999999523163,"stimulus":"bees-with-color/bee-B1SM.svg","response":1,"trial_type":"image-button-response","trial_index":133,"time_elapsed":406556,"internal_node_id":"0.0-4.0-0.61","subject_id":"60ba349d21c7acbaaabc36dd","study_id":"6197b3f67c2b5cd3b6d9596a","session_id":"619be3210778af80abd78ec0","condition":"contingent","relevant_dimensions":["antennae","legs"],"bee_group":{"antennae":"B","wings":"X","pattern":"X","legs":"F"},"action":"avoid","summary":"bad-avoid","bonus":0.8200000000000006},{"rt":871.7999999523163,"stimulus":"\n                    <p><b>Action: <em>avoid</em></b></p>\n                    <p>This is the bee that you just saw.</p>\n                    <img src=\"bees-with-color/bee-B1SM.svg\" width=\"200\">\n                    <p><br>Your bonus pay is unchanged, and remains at $0.64.</p>\n            ","response":0,"trial_type":"html-button-response","trial_index":134,"time_elapsed":407429,"internal_node_id":"0.0-4.0-1.61","subject_id":"60ba349d21c7acbaaabc36dd","study_id":"6197b3f67c2b5cd3b6d9596a","session_id":"619be3210778af80abd78ec0","condition":"contingent","relevant_dimensions":["antennae","legs"],"bee_group":{"antennae":"B","wings":"X","pattern":"X","legs":"F"},"bonus":0.8200000000000006},{"rt":1058.2000000476837,"stimulus":"bees-with-color/bee-A1SM.svg","response":1,"trial_type":"image-button-response","trial_index":135,"time_elapsed":408488,"internal_node_id":"0.0-4.0-0.62","subject_id":"60ba349d21c7acbaaabc36dd","study_id":"6197b3f67c2b5cd3b6d9596a","session_id":"619be3210778af80abd78ec0","condition":"contingent","relevant_dimensions":["antennae","legs"],"bee_group":{"antennae":"B","wings":"X","pattern":"X","legs":"F"},"action":"avoid","summary":"bad-avoid","bonus":0.8200000000000006},{"rt":1226.2000000476837,"stimulus":"\n                    <p><b>Action: <em>avoid</em></b></p>\n                    <p>This is the bee that you just saw.</p>\n                    <img src=\"bees-with-color/bee-A1SM.svg\" width=\"200\">\n                    <p><br>Your bonus pay is unchanged, and remains at $0.64.</p>\n            ","response":0,"trial_type":"html-button-response","trial_index":136,"time_elapsed":409715,"internal_node_id":"0.0-4.0-1.62","subject_id":"60ba349d21c7acbaaabc36dd","study_id":"6197b3f67c2b5cd3b6d9596a","session_id":"619be3210778af80abd78ec0","condition":"contingent","relevant_dimensions":["antennae","legs"],"bee_group":{"antennae":"B","wings":"X","pattern":"X","legs":"F"},"bonus":0.8200000000000006},{"rt":1621.1000000238419,"stimulus":"bees-with-color/bee-A1DM.svg","response":0,"trial_type":"image-button-response","trial_index":137,"time_elapsed":411337,"internal_node_id":"0.0-4.0-0.63","subject_id":"60ba349d21c7acbaaabc36dd","study_id":"6197b3f67c2b5cd3b6d9596a","session_id":"619be3210778af80abd78ec0","condition":"contingent","relevant_dimensions":["antennae","legs"],"bee_group":{"antennae":"B","wings":"X","pattern":"X","legs":"F"},"action":"harvest","summary":"good-harvest","bonus":0.8200000000000006},{"rt":1041,"stimulus":"\n                    <p><b>Action: <em>harvest</em></b></p>\n                    <p>This is the bee that you just saw.</p>\n                    <img src=\"bees-with-color/bee-A1DM.svg\" width=\"200\">\n                    <p><span class=\"greenText\"><b>Successful harvest!</b></span><br>Your pay has increased by $0.02. Your bonus pay is now $0.66.</p>\n            ","response":0,"trial_type":"html-button-response","trial_index":138,"time_elapsed":412379,"internal_node_id":"0.0-4.0-1.63","subject_id":"60ba349d21c7acbaaabc36dd","study_id":"6197b3f67c2b5cd3b6d9596a","session_id":"619be3210778af80abd78ec0","condition":"contingent","relevant_dimensions":["antennae","legs"],"bee_group":{"antennae":"B","wings":"X","pattern":"X","legs":"F"},"bonus":0.8200000000000006},{"rt":10222.300000071526,"stimulus":"You have completed the first part of this experiment.<br><br>You will now begin a shorter second part, in which you will receive no feedback.<br>The same rules regarding bonus pay apply.<br><br>Press any key to begin.","response":" ","trial_type":"html-keyboard-response","trial_index":139,"time_elapsed":422602,"internal_node_id":"0.0-5.0","subject_id":"60ba349d21c7acbaaabc36dd","study_id":"6197b3f67c2b5cd3b6d9596a","session_id":"619be3210778af80abd78ec0","condition":"contingent","relevant_dimensions":["antennae","legs"],"bee_group":{"antennae":"B","wings":"X","pattern":"X","legs":"F"},"bonus":0.8200000000000006},{"rt":6778.600000023842,"stimulus":"bees-with-color/bee-B2DF.svg","response":1,"trial_type":"image-button-response","trial_index":140,"time_elapsed":429388,"internal_node_id":"0.0-6.0-0.0","subject_id":"60ba349d21c7acbaaabc36dd","study_id":"6197b3f67c2b5cd3b6d9596a","session_id":"619be3210778af80abd78ec0","condition":"contingent","relevant_dimensions":["antennae","legs"],"bee_group":{"antennae":"B","wings":"X","pattern":"X","legs":"F"},"bonus":0.8200000000000006},{"rt":2449.5,"stimulus":"bees-with-color/bee-A2SM.svg","response":1,"trial_type":"image-button-response","trial_index":141,"time_elapsed":431839,"internal_node_id":"0.0-6.0-0.1","subject_id":"60ba349d21c7acbaaabc36dd","study_id":"6197b3f67c2b5cd3b6d9596a","session_id":"619be3210778af80abd78ec0","condition":"contingent","relevant_dimensions":["antennae","legs"],"bee_group":{"antennae":"B","wings":"X","pattern":"X","legs":"F"},"bonus":0.8200000000000006},{"rt":485.89999997615814,"stimulus":"bees-with-color/bee-B2SM.svg","response":1,"trial_type":"image-button-response","trial_index":142,"time_elapsed":432326,"internal_node_id":"0.0-6.0-0.2","subject_id":"60ba349d21c7acbaaabc36dd","study_id":"6197b3f67c2b5cd3b6d9596a","session_id":"619be3210778af80abd78ec0","condition":"contingent","relevant_dimensions":["antennae","legs"],"bee_group":{"antennae":"B","wings":"X","pattern":"X","legs":"F"},"bonus":0.8200000000000006},{"rt":2076.2999999523163,"stimulus":"bees-with-color/bee-A1SM.svg","response":1,"trial_type":"image-button-response","trial_index":143,"time_elapsed":434404,"internal_node_id":"0.0-6.0-0.3","subject_id":"60ba349d21c7acbaaabc36dd","study_id":"6197b3f67c2b5cd3b6d9596a","session_id":"619be3210778af80abd78ec0","condition":"contingent","relevant_dimensions":["antennae","legs"],"bee_group":{"antennae":"B","wings":"X","pattern":"X","legs":"F"},"bonus":0.8200000000000006},{"rt":401.10000002384186,"stimulus":"bees-with-color/bee-B1SF.svg","response":1,"trial_type":"image-button-response","trial_index":144,"time_elapsed":434807,"internal_node_id":"0.0-6.0-0.4","subject_id":"60ba349d21c7acbaaabc36dd","study_id":"6197b3f67c2b5cd3b6d9596a","session_id":"619be3210778af80abd78ec0","condition":"contingent","relevant_dimensions":["antennae","legs"],"bee_group":{"antennae":"B","wings":"X","pattern":"X","legs":"F"},"bonus":0.8200000000000006},{"rt":409,"stimulus":"bees-with-color/bee-A2SF.svg","response":1,"trial_type":"image-button-response","trial_index":145,"time_elapsed":435217,"internal_node_id":"0.0-6.0-0.5","subject_id":"60ba349d21c7acbaaabc36dd","study_id":"6197b3f67c2b5cd3b6d9596a","session_id":"619be3210778af80abd78ec0","condition":"contingent","relevant_dimensions":["antennae","legs"],"bee_group":{"antennae":"B","wings":"X","pattern":"X","legs":"F"},"bonus":0.8200000000000006},{"rt":1347.2999999523163,"stimulus":"bees-with-color/bee-A1DF.svg","response":0,"trial_type":"image-button-response","trial_index":146,"time_elapsed":436566,"internal_node_id":"0.0-6.0-0.6","subject_id":"60ba349d21c7acbaaabc36dd","study_id":"6197b3f67c2b5cd3b6d9596a","session_id":"619be3210778af80abd78ec0","condition":"contingent","relevant_dimensions":["antennae","legs"],"bee_group":{"antennae":"B","wings":"X","pattern":"X","legs":"F"},"bonus":0.8200000000000006},{"rt":1448.6000000238419,"stimulus":"bees-with-color/bee-A1SF.svg","response":1,"trial_type":"image-button-response","trial_index":147,"time_elapsed":438016,"internal_node_id":"0.0-6.0-0.7","subject_id":"60ba349d21c7acbaaabc36dd","study_id":"6197b3f67c2b5cd3b6d9596a","session_id":"619be3210778af80abd78ec0","condition":"contingent","relevant_dimensions":["antennae","legs"],"bee_group":{"antennae":"B","wings":"X","pattern":"X","legs":"F"},"bonus":0.8200000000000006},{"rt":669.1000000238419,"stimulus":"bees-with-color/bee-B1SM.svg","response":1,"trial_type":"image-button-response","trial_index":148,"time_elapsed":438687,"internal_node_id":"0.0-6.0-0.8","subject_id":"60ba349d21c7acbaaabc36dd","study_id":"6197b3f67c2b5cd3b6d9596a","session_id":"619be3210778af80abd78ec0","condition":"contingent","relevant_dimensions":["antennae","legs"],"bee_group":{"antennae":"B","wings":"X","pattern":"X","legs":"F"},"bonus":0.8200000000000006},{"rt":1151.4000000953674,"stimulus":"bees-with-color/bee-A1DM.svg","response":0,"trial_type":"image-button-response","trial_index":149,"time_elapsed":439840,"internal_node_id":"0.0-6.0-0.9","subject_id":"60ba349d21c7acbaaabc36dd","study_id":"6197b3f67c2b5cd3b6d9596a","session_id":"619be3210778af80abd78ec0","condition":"contingent","relevant_dimensions":["antennae","legs"],"bee_group":{"antennae":"B","wings":"X","pattern":"X","legs":"F"},"bonus":0.8200000000000006},{"rt":901.2000000476837,"stimulus":"bees-with-color/bee-B2SF.svg","response":1,"trial_type":"image-button-response","trial_index":150,"time_elapsed":440742,"internal_node_id":"0.0-6.0-0.10","subject_id":"60ba349d21c7acbaaabc36dd","study_id":"6197b3f67c2b5cd3b6d9596a","session_id":"619be3210778af80abd78ec0","condition":"contingent","relevant_dimensions":["antennae","legs"],"bee_group":{"antennae":"B","wings":"X","pattern":"X","legs":"F"},"bonus":0.8200000000000006},{"rt":947.3000000715256,"stimulus":"bees-with-color/bee-B1DM.svg","response":1,"trial_type":"image-button-response","trial_index":151,"time_elapsed":441691,"internal_node_id":"0.0-6.0-0.11","subject_id":"60ba349d21c7acbaaabc36dd","study_id":"6197b3f67c2b5cd3b6d9596a","session_id":"619be3210778af80abd78ec0","condition":"contingent","relevant_dimensions":["antennae","legs"],"bee_group":{"antennae":"B","wings":"X","pattern":"X","legs":"F"},"bonus":0.8200000000000006},{"rt":2658.600000023842,"stimulus":"bees-with-color/bee-A2DF.svg","response":0,"trial_type":"image-button-response","trial_index":152,"time_elapsed":444351,"internal_node_id":"0.0-6.0-0.12","subject_id":"60ba349d21c7acbaaabc36dd","study_id":"6197b3f67c2b5cd3b6d9596a","session_id":"619be3210778af80abd78ec0","condition":"contingent","relevant_dimensions":["antennae","legs"],"bee_group":{"antennae":"B","wings":"X","pattern":"X","legs":"F"},"bonus":0.8200000000000006},{"rt":1187.8999999761581,"stimulus":"bees-with-color/bee-B1DF.svg","response":1,"trial_type":"image-button-response","trial_index":153,"time_elapsed":445540,"internal_node_id":"0.0-6.0-0.13","subject_id":"60ba349d21c7acbaaabc36dd","study_id":"6197b3f67c2b5cd3b6d9596a","session_id":"619be3210778af80abd78ec0","condition":"contingent","relevant_dimensions":["antennae","legs"],"bee_group":{"antennae":"B","wings":"X","pattern":"X","legs":"F"},"bonus":0.8200000000000006},{"rt":1260.2999999523163,"stimulus":"bees-with-color/bee-A2DM.svg","response":0,"trial_type":"image-button-response","trial_index":154,"time_elapsed":446801,"internal_node_id":"0.0-6.0-0.14","subject_id":"60ba349d21c7acbaaabc36dd","study_id":"6197b3f67c2b5cd3b6d9596a","session_id":"619be3210778af80abd78ec0","condition":"contingent","relevant_dimensions":["antennae","legs"],"bee_group":{"antennae":"B","wings":"X","pattern":"X","legs":"F"},"bonus":0.8200000000000006},{"rt":1354.3999999761581,"stimulus":"bees-with-color/bee-B2DM.svg","response":1,"trial_type":"image-button-response","trial_index":155,"time_elapsed":448157,"internal_node_id":"0.0-6.0-0.15","subject_id":"60ba349d21c7acbaaabc36dd","study_id":"6197b3f67c2b5cd3b6d9596a","session_id":"619be3210778af80abd78ec0","condition":"contingent","relevant_dimensions":["antennae","legs"],"bee_group":{"antennae":"B","wings":"X","pattern":"X","legs":"F"},"bonus":0.8200000000000006},{"rt":1169.6000000238419,"stimulus":"bees-with-color/bee-A1DM.svg","response":0,"trial_type":"image-button-response","trial_index":156,"time_elapsed":449328,"internal_node_id":"0.0-6.0-0.16","subject_id":"60ba349d21c7acbaaabc36dd","study_id":"6197b3f67c2b5cd3b6d9596a","session_id":"619be3210778af80abd78ec0","condition":"contingent","relevant_dimensions":["antennae","legs"],"bee_group":{"antennae":"B","wings":"X","pattern":"X","legs":"F"},"bonus":0.8200000000000006},{"rt":1023.6000000238419,"stimulus":"bees-with-color/bee-B2SF.svg","response":1,"trial_type":"image-button-response","trial_index":157,"time_elapsed":450353,"internal_node_id":"0.0-6.0-0.17","subject_id":"60ba349d21c7acbaaabc36dd","study_id":"6197b3f67c2b5cd3b6d9596a","session_id":"619be3210778af80abd78ec0","condition":"contingent","relevant_dimensions":["antennae","legs"],"bee_group":{"antennae":"B","wings":"X","pattern":"X","legs":"F"},"bonus":0.8200000000000006},{"rt":639.2000000476837,"stimulus":"bees-with-color/bee-B2DF.svg","response":1,"trial_type":"image-button-response","trial_index":158,"time_elapsed":450994,"internal_node_id":"0.0-6.0-0.18","subject_id":"60ba349d21c7acbaaabc36dd","study_id":"6197b3f67c2b5cd3b6d9596a","session_id":"619be3210778af80abd78ec0","condition":"contingent","relevant_dimensions":["antennae","legs"],"bee_group":{"antennae":"B","wings":"X","pattern":"X","legs":"F"},"bonus":0.8200000000000006},{"rt":1201.3999999761581,"stimulus":"bees-with-color/bee-A2SF.svg","response":1,"trial_type":"image-button-response","trial_index":159,"time_elapsed":452196,"internal_node_id":"0.0-6.0-0.19","subject_id":"60ba349d21c7acbaaabc36dd","study_id":"6197b3f67c2b5cd3b6d9596a","session_id":"619be3210778af80abd78ec0","condition":"contingent","relevant_dimensions":["antennae","legs"],"bee_group":{"antennae":"B","wings":"X","pattern":"X","legs":"F"},"bonus":0.8200000000000006},{"rt":891.0999999046326,"stimulus":"bees-with-color/bee-B2DM.svg","response":1,"trial_type":"image-button-response","trial_index":160,"time_elapsed":453088,"internal_node_id":"0.0-6.0-0.20","subject_id":"60ba349d21c7acbaaabc36dd","study_id":"6197b3f67c2b5cd3b6d9596a","session_id":"619be3210778af80abd78ec0","condition":"contingent","relevant_dimensions":["antennae","legs"],"bee_group":{"antennae":"B","wings":"X","pattern":"X","legs":"F"},"bonus":0.8200000000000006},{"rt":1415.2000000476837,"stimulus":"bees-with-color/bee-A2DF.svg","response":0,"trial_type":"image-button-response","trial_index":161,"time_elapsed":454505,"internal_node_id":"0.0-6.0-0.21","subject_id":"60ba349d21c7acbaaabc36dd","study_id":"6197b3f67c2b5cd3b6d9596a","session_id":"619be3210778af80abd78ec0","condition":"contingent","relevant_dimensions":["antennae","legs"],"bee_group":{"antennae":"B","wings":"X","pattern":"X","legs":"F"},"bonus":0.8200000000000006},{"rt":948.5,"stimulus":"bees-with-color/bee-A1SM.svg","response":1,"trial_type":"image-button-response","trial_index":162,"time_elapsed":455455,"internal_node_id":"0.0-6.0-0.22","subject_id":"60ba349d21c7acbaaabc36dd","study_id":"6197b3f67c2b5cd3b6d9596a","session_id":"619be3210778af80abd78ec0","condition":"contingent","relevant_dimensions":["antennae","legs"],"bee_group":{"antennae":"B","wings":"X","pattern":"X","legs":"F"},"bonus":0.8200000000000006},{"rt":845.5,"stimulus":"bees-with-color/bee-B2SM.svg","response":1,"trial_type":"image-button-response","trial_index":163,"time_elapsed":456301,"internal_node_id":"0.0-6.0-0.23","subject_id":"60ba349d21c7acbaaabc36dd","study_id":"6197b3f67c2b5cd3b6d9596a","session_id":"619be3210778af80abd78ec0","condition":"contingent","relevant_dimensions":["antennae","legs"],"bee_group":