[{"success":true,"trial_type":"fullscreen","trial_index":0,"time_elapsed":9289,"internal_node_id":"0.0-0.0","subject_id":"5f69e356d68b93020e622bf2","study_id":"6197b3f67c2b5cd3b6d9596a","session_id":"619bef86e87fc3fafc834e5f","condition":"contingent","relevant_dimensions":["antennae","pattern"],"bee_group":{"antennae":"B","wings":"X","pattern":"S","legs":"X"},"bonus":1.060000000000001},{"success":true,"timeout":false,"failed_images":[],"failed_audio":[],"failed_video":[],"trial_type":"preload","trial_index":1,"time_elapsed":11347,"internal_node_id":"0.0-1.0","subject_id":"5f69e356d68b93020e622bf2","study_id":"6197b3f67c2b5cd3b6d9596a","session_id":"619bef86e87fc3fafc834e5f","condition":"contingent","relevant_dimensions":["antennae","pattern"],"bee_group":{"antennae":"B","wings":"X","pattern":"S","legs":"X"},"bonus":1.060000000000001},{"rt":1908.4000000059605,"stimulus":"Welcome! Press any key to begin.","response":"h","trial_type":"html-keyboard-response","trial_index":2,"time_elapsed":13257,"internal_node_id":"0.0-2.0","subject_id":"5f69e356d68b93020e622bf2","study_id":"6197b3f67c2b5cd3b6d9596a","session_id":"619bef86e87fc3fafc834e5f","condition":"contingent","relevant_dimensions":["antennae","pattern"],"bee_group":{"antennae":"B","wings":"X","pattern":"S","legs":"X"},"bonus":1.060000000000001},{"view_history":[{"page_index":0,"viewing_time":5910.800000011921},{"page_index":1,"viewing_time":18000.09999999404},{"page_index":2,"viewing_time":12231.90000000596},{"page_index":3,"viewing_time":22120},{"page_index":4,"viewing_time":8024},{"page_index":5,"viewing_time":7879.800000011921},{"page_index":6,"viewing_time":18264.19999998808},{"page_index":7,"viewing_time":18535.80000001192},{"page_index":8,"viewing_time":3664},{"page_index":9,"viewing_time":3208.2999999821186},{"page_index":10,"viewing_time":3407.5},{"page_index":11,"viewing_time":17344},{"page_index":12,"viewing_time":13912.09999999404},{"page_index":13,"viewing_time":936},{"page_index":14,"viewing_time":1423.9000000059605}],"rt":154862.80000001192,"trial_type":"instructions","trial_index":3,"time_elapsed":168120,"internal_node_id":"0.0-3.0-0.0","subject_id":"5f69e356d68b93020e622bf2","study_id":"6197b3f67c2b5cd3b6d9596a","session_id":"619bef86e87fc3fafc834e5f","condition":"contingent","relevant_dimensions":["antennae","pattern"],"bee_group":{"antennae":"B","wings":"X","pattern":"S","legs":"X"},"bonus":1.060000000000001},{"rt":28848.5,"response":{"Q0":["Two or six legs","Stripes or spots on body","Single or double wings","Antennae or no antennae"]},"question_order":[0],"trial_type":"survey-multi-select","trial_index":4,"time_elapsed":196976,"internal_node_id":"0.0-3.0-1.0","subject_id":"5f69e356d68b93020e622bf2","study_id":"6197b3f67c2b5cd3b6d9596a","session_id":"619bef86e87fc3fafc834e5f","condition":"contingent","relevant_dimensions":["antennae","pattern"],"bee_group":{"antennae":"B","wings":"X","pattern":"S","legs":"X"},"correct":true,"bonus":1.060000000000001},{"rt":22223.5,"response":{"Q1":"No.","Q2":"Based on the four features of the bee.","Q3":"You do not learn if it was friendly or dangerous, and do not alter your bonus."},"question_order":[0,1,2],"trial_type":"survey-multi-choice","trial_index":5,"time_elapsed":219206,"internal_node_id":"0.0-3.0-2.0","subject_id":"5f69e356d68b93020e622bf2","study_id":"6197b3f67c2b5cd3b6d9596a","session_id":"619bef86e87fc3fafc834e5f","condition":"contingent","relevant_dimensions":["antennae","pattern"],"bee_group":{"antennae":"B","wings":"X","pattern":"S","legs":"X"},"correct":true,"bonus":1.060000000000001},{"rt":2439.5999999940395,"stimulus":"<p>Congrats, you got everything right<br>When you're ready, click the button below to continue to the experiment.</p>","response":0,"trial_type":"html-button-response","trial_index":6,"time_elapsed":221648,"internal_node_id":"0.0-3.0-3.0","subject_id":"5f69e356d68b93020e622bf2","study_id":"6197b3f67c2b5cd3b6d9596a","session_id":"619bef86e87fc3fafc834e5f","condition":"contingent","relevant_dimensions":["antennae","pattern"],"bee_group":{"antennae":"B","wings":"X","pattern":"S","legs":"X"},"bonus":1.060000000000001},{"rt":10236.90000000596,"stimulus":"bees-with-color/bee-B2SM.svg","response":0,"trial_type":"image-button-response","trial_index":7,"time_elapsed":231887,"internal_node_id":"0.0-4.0-0.0","subject_id":"5f69e356d68b93020e622bf2","study_id":"6197b3f67c2b5cd3b6d9596a","session_id":"619bef86e87fc3fafc834e5f","condition":"contingent","relevant_dimensions":["antennae","pattern"],"bee_group":{"antennae":"B","wings":"X","pattern":"S","legs":"X"},"action":"harvest","summary":"bad-harvest","bonus":1.060000000000001},{"rt":9267.800000011921,"stimulus":"\n                    <p><b>Action: <em>harvest</em></b></p>\n                    <p>This is the bee that you just saw.</p>\n                    <img src=\"bees-with-color/bee-B2SM.svg\" width=\"200\">\n                    <p><span class=\"redText\">Bad choice, the bee was angry.</span><br><b>You have been stung!</b><br>Your pay has been decreased by $0.10. Your bonus pay is now $0.44.</p>\n            ","response":0,"trial_type":"html-button-response","trial_index":8,"time_elapsed":241207,"internal_node_id":"0.0-4.0-1.0","subject_id":"5f69e356d68b93020e622bf2","study_id":"6197b3f67c2b5cd3b6d9596a","session_id":"619bef86e87fc3fafc834e5f","condition":"contingent","relevant_dimensions":["antennae","pattern"],"bee_group":{"antennae":"B","wings":"X","pattern":"S","legs":"X"},"bonus":1.060000000000001},{"rt":1766.0999999940395,"stimulus":"bees-with-color/bee-A1DF.svg","response":0,"trial_type":"image-button-response","trial_index":9,"time_elapsed":242976,"internal_node_id":"0.0-4.0-0.1","subject_id":"5f69e356d68b93020e622bf2","study_id":"6197b3f67c2b5cd3b6d9596a","session_id":"619bef86e87fc3fafc834e5f","condition":"contingent","relevant_dimensions":["antennae","pattern"],"bee_group":{"antennae":"B","wings":"X","pattern":"S","legs":"X"},"action":"harvest","summary":"good-harvest","bonus":1.060000000000001},{"rt":5782,"stimulus":"\n                    <p><b>Action: <em>harvest</em></b></p>\n                    <p>This is the bee that you just saw.</p>\n                    <img src=\"bees-with-color/bee-A1DF.svg\" width=\"200\">\n                    <p><span class=\"greenText\"><b>Successful harvest!</b></span><br>Your pay has increased by $0.02. Your bonus pay is now $0.46.</p>\n            ","response":0,"trial_type":"html-button-response","trial_index":10,"time_elapsed":248759,"internal_node_id":"0.0-4.0-1.1","subject_id":"5f69e356d68b93020e622bf2","study_id":"6197b3f67c2b5cd3b6d9596a","session_id":"619bef86e87fc3fafc834e5f","condition":"contingent","relevant_dimensions":["antennae","pattern"],"bee_group":{"antennae":"B","wings":"X","pattern":"S","legs":"X"},"bonus":1.060000000000001},{"rt":3366.4000000059605,"stimulus":"bees-with-color/bee-A1DM.svg","response":0,"trial_type":"image-button-response","trial_index":11,"time_elapsed":252127,"internal_node_id":"0.0-4.0-0.2","subject_id":"5f69e356d68b93020e622bf2","study_id":"6197b3f67c2b5cd3b6d9596a","session_id":"619bef86e87fc3fafc834e5f","condition":"contingent","relevant_dimensions":["antennae","pattern"],"bee_group":{"antennae":"B","wings":"X","pattern":"S","legs":"X"},"action":"harvest","summary":"good-harvest","bonus":1.060000000000001},{"rt":1782.5,"stimulus":"\n                    <p><b>Action: <em>harvest</em></b></p>\n                    <p>This is the bee that you just saw.</p>\n                    <img src=\"bees-with-color/bee-A1DM.svg\" width=\"200\">\n                    <p><span class=\"greenText\"><b>Successful harvest!</b></span><br>Your pay has increased by $0.02. Your bonus pay is now $0.48.</p>\n            ","response":0,"trial_type":"html-button-response","trial_index":12,"time_elapsed":253911,"internal_node_id":"0.0-4.0-1.2","subject_id":"5f69e356d68b93020e622bf2","study_id":"6197b3f67c2b5cd3b6d9596a","session_id":"619bef86e87fc3fafc834e5f","condition":"contingent","relevant_dimensions":["antennae","pattern"],"bee_group":{"antennae":"B","wings":"X","pattern":"S","legs":"X"},"bonus":1.060000000000001},{"rt":3782.5,"stimulus":"bees-with-color/bee-B2DF.svg","response":0,"trial_type":"image-button-response","trial_index":13,"time_elapsed":257697,"internal_node_id":"0.0-4.0-0.3","subject_id":"5f69e356d68b93020e622bf2","study_id":"6197b3f67c2b5cd3b6d9596a","session_id":"619bef86e87fc3fafc834e5f","condition":"contingent","relevant_dimensions":["antennae","pattern"],"bee_group":{"antennae":"B","wings":"X","pattern":"S","legs":"X"},"action":"harvest","summary":"good-harvest","bonus":1.060000000000001},{"rt":2125.399999976158,"stimulus":"\n                    <p><b>Action: <em>harvest</em></b></p>\n                    <p>This is the bee that you just saw.</p>\n                    <img src=\"bees-with-color/bee-B2DF.svg\" width=\"200\">\n                    <p><span class=\"greenText\"><b>Successful harvest!</b></span><br>Your pay has increased by $0.02. Your bonus pay is now $0.50.</p>\n            ","response":0,"trial_type":"html-button-response","trial_index":14,"time_elapsed":259824,"internal_node_id":"0.0-4.0-1.3","subject_id":"5f69e356d68b93020e622bf2","study_id":"6197b3f67c2b5cd3b6d9596a","session_id":"619bef86e87fc3fafc834e5f","condition":"contingent","relevant_dimensions":["antennae","pattern"],"bee_group":{"antennae":"B","wings":"X","pattern":"S","legs":"X"},"bonus":1.060000000000001},{"rt":3405.9000000059605,"stimulus":"bees-with-color/bee-A1SM.svg","response":1,"trial_type":"image-button-response","trial_index":15,"time_elapsed":263231,"internal_node_id":"0.0-4.0-0.4","subject_id":"5f69e356d68b93020e622bf2","study_id":"6197b3f67c2b5cd3b6d9596a","session_id":"619bef86e87fc3fafc834e5f","condition":"contingent","relevant_dimensions":["antennae","pattern"],"bee_group":{"antennae":"B","wings":"X","pattern":"S","legs":"X"},"action":"avoid","summary":"bad-avoid","bonus":1.060000000000001},{"rt":2470.5,"stimulus":"\n                    <p><b>Action: <em>avoid</em></b></p>\n                    <p>This is the bee that you just saw.</p>\n                    <img src=\"bees-with-color/bee-A1SM.svg\" width=\"200\">\n                    <p><br>Your bonus pay is unchanged, and remains at $0.50.</p>\n            ","response":0,"trial_type":"html-button-response","trial_index":16,"time_elapsed":265703,"internal_node_id":"0.0-4.0-1.4","subject_id":"5f69e356d68b93020e622bf2","study_id":"6197b3f67c2b5cd3b6d9596a","session_id":"619bef86e87fc3fafc834e5f","condition":"contingent","relevant_dimensions":["antennae","pattern"],"bee_group":{"antennae":"B","wings":"X","pattern":"S","legs":"X"},"bonus":1.060000000000001},{"rt":4710.199999988079,"stimulus":"bees-with-color/bee-B1SM.svg","response":0,"trial_type":"image-button-response","trial_index":17,"time_elapsed":270416,"internal_node_id":"0.0-4.0-0.5","subject_id":"5f69e356d68b93020e622bf2","study_id":"6197b3f67c2b5cd3b6d9596a","session_id":"619bef86e87fc3fafc834e5f","condition":"contingent","relevant_dimensions":["antennae","pattern"],"bee_group":{"antennae":"B","wings":"X","pattern":"S","legs":"X"},"action":"harvest","summary":"bad-harvest","bonus":1.060000000000001},{"rt":1679,"stimulus":"\n                    <p><b>Action: <em>harvest</em></b></p>\n                    <p>This is the bee that you just saw.</p>\n                    <img src=\"bees-with-color/bee-B1SM.svg\" width=\"200\">\n                    <p><span class=\"redText\">Bad choice, the bee was angry.</span><br><b>You have been stung!</b><br>Your pay has been decreased by $0.10. Your bonus pay is now $0.40.</p>\n            ","response":0,"trial_type":"html-button-response","trial_index":18,"time_elapsed":272096,"internal_node_id":"0.0-4.0-1.5","subject_id":"5f69e356d68b93020e622bf2","study_id":"6197b3f67c2b5cd3b6d9596a","session_id":"619bef86e87fc3fafc834e5f","condition":"contingent","relevant_dimensions":["antennae","pattern"],"bee_group":{"antennae":"B","wings":"X","pattern":"S","legs":"X"},"bonus":1.060000000000001},{"rt":2404.7999999821186,"stimulus":"bees-with-color/bee-B1DF.svg","response":0,"trial_type":"image-button-response","trial_index":19,"time_elapsed":274503,"internal_node_id":"0.0-4.0-0.6","subject_id":"5f69e356d68b93020e622bf2","study_id":"6197b3f67c2b5cd3b6d9596a","session_id":"619bef86e87fc3fafc834e5f","condition":"contingent","relevant_dimensions":["antennae","pattern"],"bee_group":{"antennae":"B","wings":"X","pattern":"S","legs":"X"},"action":"harvest","summary":"good-harvest","bonus":1.060000000000001},{"rt":1830.5999999940395,"stimulus":"\n                    <p><b>Action: <em>harvest</em></b></p>\n                    <p>This is the bee that you just saw.</p>\n                    <img src=\"bees-with-color/bee-B1DF.svg\" width=\"200\">\n                    <p><span class=\"greenText\"><b>Successful harvest!</b></span><br>Your pay has increased by $0.02. Your bonus pay is now $0.42.</p>\n            ","response":0,"trial_type":"html-button-response","trial_index":20,"time_elapsed":276336,"internal_node_id":"0.0-4.0-1.6","subject_id":"5f69e356d68b93020e622bf2","study_id":"6197b3f67c2b5cd3b6d9596a","session_id":"619bef86e87fc3fafc834e5f","condition":"contingent","relevant_dimensions":["antennae","pattern"],"bee_group":{"antennae":"B","wings":"X","pattern":"S","legs":"X"},"bonus":1.060000000000001},{"rt":3286.800000011921,"stimulus":"bees-with-color/bee-A2SF.svg","response":1,"trial_type":"image-button-response","trial_index":21,"time_elapsed":279624,"internal_node_id":"0.0-4.0-0.7","subject_id":"5f69e356d68b93020e622bf2","study_id":"6197b3f67c2b5cd3b6d9596a","session_id":"619bef86e87fc3fafc834e5f","condition":"contingent","relevant_dimensions":["antennae","pattern"],"bee_group":{"antennae":"B","wings":"X","pattern":"S","legs":"X"},"action":"avoid","summary":"bad-avoid","bonus":1.060000000000001},{"rt":605.7000000178814,"stimulus":"\n                    <p><b>Action: <em>avoid</em></b></p>\n                    <p>This is the bee that you just saw.</p>\n                    <img src=\"bees-with-color/bee-A2SF.svg\" width=\"200\">\n                    <p><br>Your bonus pay is unchanged, and remains at $0.42.</p>\n            ","response":0,"trial_type":"html-button-response","trial_index":22,"time_elapsed":280231,"internal_node_id":"0.0-4.0-1.7","subject_id":"5f69e356d68b93020e622bf2","study_id":"6197b3f67c2b5cd3b6d9596a","session_id":"619bef86e87fc3fafc834e5f","condition":"contingent","relevant_dimensions":["antennae","pattern"],"bee_group":{"antennae":"B","wings":"X","pattern":"S","legs":"X"},"bonus":1.060000000000001},{"rt":2214,"stimulus":"bees-with-color/bee-B2DM.svg","response":0,"trial_type":"image-button-response","trial_index":23,"time_elapsed":282447,"internal_node_id":"0.0-4.0-0.8","subject_id":"5f69e356d68b93020e622bf2","study_id":"6197b3f67c2b5cd3b6d9596a","session_id":"619bef86e87fc3fafc834e5f","condition":"contingent","relevant_dimensions":["antennae","pattern"],"bee_group":{"antennae":"B","wings":"X","pattern":"S","legs":"X"},"action":"harvest","summary":"good-harvest","bonus":1.060000000000001},{"rt":774.4000000059605,"stimulus":"\n                    <p><b>Action: <em>harvest</em></b></p>\n                    <p>This is the bee that you just saw.</p>\n                    <img src=\"bees-with-color/bee-B2DM.svg\" width=\"200\">\n                    <p><span class=\"greenText\"><b>Successful harvest!</b></span><br>Your pay has increased by $0.02. Your bonus pay is now $0.44.</p>\n            ","response":0,"trial_type":"html-button-response","trial_index":24,"time_elapsed":283224,"internal_node_id":"0.0-4.0-1.8","subject_id":"5f69e356d68b93020e622bf2","study_id":"6197b3f67c2b5cd3b6d9596a","session_id":"619bef86e87fc3fafc834e5f","condition":"contingent","relevant_dimensions":["antennae","pattern"],"bee_group":{"antennae":"B","wings":"X","pattern":"S","legs":"X"},"bonus":1.060000000000001},{"rt":3166.5,"stimulus":"bees-with-color/bee-B2SF.svg","response":0,"trial_type":"image-button-response","trial_index":25,"time_elapsed":286392,"internal_node_id":"0.0-4.0-0.9","subject_id":"5f69e356d68b93020e622bf2","study_id":"6197b3f67c2b5cd3b6d9596a","session_id":"619bef86e87fc3fafc834e5f","condition":"contingent","relevant_dimensions":["antennae","pattern"],"bee_group":{"antennae":"B","wings":"X","pattern":"S","legs":"X"},"action":"harvest","summary":"bad-harvest","bonus":1.060000000000001},{"rt":894.2000000178814,"stimulus":"\n                    <p><b>Action: <em>harvest</em></b></p>\n                    <p>This is the bee that you just saw.</p>\n                    <img src=\"bees-with-color/bee-B2SF.svg\" width=\"200\">\n                    <p><span class=\"redText\">Bad choice, the bee was angry.</span><br><b>You have been stung!</b><br>Your pay has been decreased by $0.10. Your bonus pay is now $0.34.</p>\n            ","response":0,"trial_type":"html-button-response","trial_index":26,"time_elapsed":287288,"internal_node_id":"0.0-4.0-1.9","subject_id":"5f69e356d68b93020e622bf2","study_id":"6197b3f67c2b5cd3b6d9596a","session_id":"619bef86e87fc3fafc834e5f","condition":"contingent","relevant_dimensions":["antennae","pattern"],"bee_group":{"antennae":"B","wings":"X","pattern":"S","legs":"X"},"bonus":1.060000000000001},{"rt":1702.5,"stimulus":"bees-with-color/bee-B1DM.svg","response":0,"trial_type":"image-button-response","trial_index":27,"time_elapsed":288993,"internal_node_id":"0.0-4.0-0.10","subject_id":"5f69e356d68b93020e622bf2","study_id":"6197b3f67c2b5cd3b6d9596a","session_id":"619bef86e87fc3fafc834e5f","condition":"contingent","relevant_dimensions":["antennae","pattern"],"bee_group":{"antennae":"B","wings":"X","pattern":"S","legs":"X"},"action":"harvest","summary":"good-harvest","bonus":1.060000000000001},{"rt":788.5,"stimulus":"\n                    <p><b>Action: <em>harvest</em></b></p>\n                    <p>This is the bee that you just saw.</p>\n                    <img src=\"bees-with-color/bee-B1DM.svg\" width=\"200\">\n                    <p><span class=\"greenText\"><b>Successful harvest!</b></span><br>Your pay has increased by $0.02. Your bonus pay is now $0.36.</p>\n            ","response":0,"trial_type":"html-button-response","trial_index":28,"time_elapsed":289783,"internal_node_id":"0.0-4.0-1.10","subject_id":"5f69e356d68b93020e622bf2","study_id":"6197b3f67c2b5cd3b6d9596a","session_id":"619bef86e87fc3fafc834e5f","condition":"contingent","relevant_dimensions":["antennae","pattern"],"bee_group":{"antennae":"B","wings":"X","pattern":"S","legs":"X"},"bonus":1.060000000000001},{"rt":8454.800000011921,"stimulus":"bees-with-color/bee-A2DF.svg","response":0,"trial_type":"image-button-response","trial_index":29,"time_elapsed":298240,"internal_node_id":"0.0-4.0-0.11","subject_id":"5f69e356d68b93020e622bf2","study_id":"6197b3f67c2b5cd3b6d9596a","session_id":"619bef86e87fc3fafc834e5f","condition":"contingent","relevant_dimensions":["antennae","pattern"],"bee_group":{"antennae":"B","wings":"X","pattern":"S","legs":"X"},"action":"harvest","summary":"good-harvest","bonus":1.060000000000001},{"rt":893.4000000059605,"stimulus":"\n                    <p><b>Action: <em>harvest</em></b></p>\n                    <p>This is the bee that you just saw.</p>\n                    <img src=\"bees-with-color/bee-A2DF.svg\" width=\"200\">\n                    <p><span class=\"greenText\"><b>Successful harvest!</b></span><br>Your pay has increased by $0.02. Your bonus pay is now $0.38.</p>\n            ","response":0,"trial_type":"html-button-response","trial_index":30,"time_elapsed":299135,"internal_node_id":"0.0-4.0-1.11","subject_id":"5f69e356d68b93020e622bf2","study_id":"6197b3f67c2b5cd3b6d9596a","session_id":"619bef86e87fc3fafc834e5f","condition":"contingent","relevant_dimensions":["antennae","pattern"],"bee_group":{"antennae":"B","wings":"X","pattern":"S","legs":"X"},"bonus":1.060000000000001},{"rt":1228.9000000059605,"stimulus":"bees-with-color/bee-B1SF.svg","response":0,"trial_type":"image-button-response","trial_index":31,"time_elapsed":300367,"internal_node_id":"0.0-4.0-0.12","subject_id":"5f69e356d68b93020e622bf2","study_id":"6197b3f67c2b5cd3b6d9596a","session_id":"619bef86e87fc3fafc834e5f","condition":"contingent","relevant_dimensions":["antennae","pattern"],"bee_group":{"antennae":"B","wings":"X","pattern":"S","legs":"X"},"action":"harvest","summary":"bad-harvest","bonus":1.060000000000001},{"rt":727.0999999940395,"stimulus":"\n                    <p><b>Action: <em>harvest</em></b></p>\n                    <p>This is the bee that you just saw.</p>\n                    <img src=\"bees-with-color/bee-B1SF.svg\" width=\"200\">\n                    <p><span class=\"redText\">Bad choice, the bee was angry.</span><br><b>You have been stung!</b><br>Your pay has been decreased by $0.10. Your bonus pay is now $0.28.</p>\n            ","response":0,"trial_type":"html-button-response","trial_index":32,"time_elapsed":301096,"internal_node_id":"0.0-4.0-1.12","subject_id":"5f69e356d68b93020e622bf2","study_id":"6197b3f67c2b5cd3b6d9596a","session_id":"619bef86e87fc3fafc834e5f","condition":"contingent","relevant_dimensions":["antennae","pattern"],"bee_group":{"antennae":"B","wings":"X","pattern":"S","legs":"X"},"bonus":1.060000000000001},{"rt":2437.5,"stimulus":"bees-with-color/bee-A2SM.svg","response":1,"trial_type":"image-button-response","trial_index":33,"time_elapsed":303535,"internal_node_id":"0.0-4.0-0.13","subject_id":"5f69e356d68b93020e622bf2","study_id":"6197b3f67c2b5cd3b6d9596a","session_id":"619bef86e87fc3fafc834e5f","condition":"contingent","relevant_dimensions":["antennae","pattern"],"bee_group":{"antennae":"B","wings":"X","pattern":"S","legs":"X"},"action":"avoid","summary":"bad-avoid","bonus":1.060000000000001},{"rt":797.5999999940395,"stimulus":"\n                    <p><b>Action: <em>avoid</em></b></p>\n                    <p>This is the bee that you just saw.</p>\n                    <img src=\"bees-with-color/bee-A2SM.svg\" width=\"200\">\n                    <p><br>Your bonus pay is unchanged, and remains at $0.28.</p>\n            ","response":0,"trial_type":"html-button-response","trial_index":34,"time_elapsed":304335,"internal_node_id":"0.0-4.0-1.13","subject_id":"5f69e356d68b93020e622bf2","study_id":"6197b3f67c2b5cd3b6d9596a","session_id":"619bef86e87fc3fafc834e5f","condition":"contingent","relevant_dimensions":["antennae","pattern"],"bee_group":{"antennae":"B","wings":"X","pattern":"S","legs":"X"},"bonus":1.060000000000001},{"rt":1293.6000000238419,"stimulus":"bees-with-color/bee-A1SF.svg","response":0,"trial_type":"image-button-response","trial_index":35,"time_elapsed":305631,"internal_node_id":"0.0-4.0-0.14","subject_id":"5f69e356d68b93020e622bf2","study_id":"6197b3f67c2b5cd3b6d9596a","session_id":"619bef86e87fc3fafc834e5f","condition":"contingent","relevant_dimensions":["antennae","pattern"],"bee_group":{"antennae":"B","wings":"X","pattern":"S","legs":"X"},"action":"harvest","summary":"good-harvest","bonus":1.060000000000001},{"rt":726.6999999880791,"stimulus":"\n                    <p><b>Action: <em>harvest</em></b></p>\n                    <p>This is the bee that you just saw.</p>\n                    <img src=\"bees-with-color/bee-A1SF.svg\" width=\"200\">\n                    <p><span class=\"greenText\"><b>Successful harvest!</b></span><br>Your pay has increased by $0.02. Your bonus pay is now $0.30.</p>\n            ","response":0,"trial_type":"html-button-response","trial_index":36,"time_elapsed":306359,"internal_node_id":"0.0-4.0-1.14","subject_id":"5f69e356d68b93020e622bf2","study_id":"6197b3f67c2b5cd3b6d9596a","session_id":"619bef86e87fc3fafc834e5f","condition":"contingent","relevant_dimensions":["antennae","pattern"],"bee_group":{"antennae":"B","wings":"X","pattern":"S","legs":"X"},"bonus":1.060000000000001},{"rt":3199.100000023842,"stimulus":"bees-with-color/bee-A2DM.svg","response":1,"trial_type":"image-button-response","trial_index":37,"time_elapsed":309559,"internal_node_id":"0.0-4.0-0.15","subject_id":"5f69e356d68b93020e622bf2","study_id":"6197b3f67c2b5cd3b6d9596a","session_id":"619bef86e87fc3fafc834e5f","condition":"contingent","relevant_dimensions":["antennae","pattern"],"bee_group":{"antennae":"B","wings":"X","pattern":"S","legs":"X"},"action":"avoid","summary":"bad-avoid","bonus":1.060000000000001},{"rt":727,"stimulus":"\n                    <p><b>Action: <em>avoid</em></b></p>\n                    <p>This is the bee that you just saw.</p>\n                    <img src=\"bees-with-color/bee-A2DM.svg\" width=\"200\">\n                    <p><br>Your bonus pay is unchanged, and remains at $0.30.</p>\n            ","response":0,"trial_type":"html-button-response","trial_index":38,"time_elapsed":310287,"internal_node_id":"0.0-4.0-1.15","subject_id":"5f69e356d68b93020e622bf2","study_id":"6197b3f67c2b5cd3b6d9596a","session_id":"619bef86e87fc3fafc834e5f","condition":"contingent","relevant_dimensions":["antennae","pattern"],"bee_group":{"antennae":"B","wings":"X","pattern":"S","legs":"X"},"bonus":1.060000000000001},{"rt":3197.800000011921,"stimulus":"bees-with-color/bee-A1SF.svg","response":0,"trial_type":"image-button-response","trial_index":39,"time_elapsed":313488,"internal_node_id":"0.0-4.0-0.16","subject_id":"5f69e356d68b93020e622bf2","study_id":"6197b3f67c2b5cd3b6d9596a","session_id":"619bef86e87fc3fafc834e5f","condition":"contingent","relevant_dimensions":["antennae","pattern"],"bee_group":{"antennae":"B","wings":"X","pattern":"S","legs":"X"},"action":"harvest","summary":"good-harvest","bonus":1.060000000000001},{"rt":853.9000000059605,"stimulus":"\n                    <p><b>Action: <em>harvest</em></b></p>\n                    <p>This is the bee that you just saw.</p>\n                    <img src=\"bees-with-color/bee-A1SF.svg\" width=\"200\">\n                    <p><span class=\"greenText\"><b>Successful harvest!</b></span><br>Your pay has increased by $0.02. Your bonus pay is now $0.32.</p>\n            ","response":0,"trial_type":"html-button-response","trial_index":40,"time_elapsed":314343,"internal_node_id":"0.0-4.0-1.16","subject_id":"5f69e356d68b93020e622bf2","study_id":"6197b3f67c2b5cd3b6d9596a","session_id":"619bef86e87fc3fafc834e5f","condition":"contingent","relevant_dimensions":["antennae","pattern"],"bee_group":{"antennae":"B","wings":"X","pattern":"S","legs":"X"},"bonus":1.060000000000001},{"rt":1312.1000000238419,"stimulus":"bees-with-color/bee-A2SM.svg","response":1,"trial_type":"image-button-response","trial_index":41,"time_elapsed":315657,"internal_node_id":"0.0-4.0-0.17","subject_id":"5f69e356d68b93020e622bf2","study_id":"6197b3f67c2b5cd3b6d9596a","session_id":"619bef86e87fc3fafc834e5f","condition":"contingent","relevant_dimensions":["antennae","pattern"],"bee_group":{"antennae":"B","wings":"X","pattern":"S","legs":"X"},"action":"avoid","summary":"bad-avoid","bonus":1.060000000000001},{"rt":748.0999999940395,"stimulus":"\n                    <p><b>Action: <em>avoid</em></b></p>\n                    <p>This is the bee that you just saw.</p>\n                    <img src=\"bees-with-color/bee-A2SM.svg\" width=\"200\">\n                    <p><br>Your bonus pay is unchanged, and remains at $0.32.</p>\n            ","response":0,"trial_type":"html-button-response","trial_index":42,"time_elapsed":316407,"internal_node_id":"0.0-4.0-1.17","subject_id":"5f69e356d68b93020e622bf2","study_id":"6197b3f67c2b5cd3b6d9596a","session_id":"619bef86e87fc3fafc834e5f","condition":"contingent","relevant_dimensions":["antennae","pattern"],"bee_group":{"antennae":"B","wings":"X","pattern":"S","legs":"X"},"bonus":1.060000000000001},{"rt":2383.199999988079,"stimulus":"bees-with-color/bee-A2DM.svg","response":1,"trial_type":"image-button-response","trial_index":43,"time_elapsed":318791,"internal_node_id":"0.0-4.0-0.18","subject_id":"5f69e356d68b93020e622bf2","study_id":"6197b3f67c2b5cd3b6d9596a","session_id":"619bef86e87fc3fafc834e5f","condition":"contingent","relevant_dimensions":["antennae","pattern"],"bee_group":{"antennae":"B","wings":"X","pattern":"S","legs":"X"},"action":"avoid","summary":"bad-avoid","bonus":1.060000000000001},{"rt":1222.199999988079,"stimulus":"\n                    <p><b>Action: <em>avoid</em></b></p>\n                    <p>This is the bee that you just saw.</p>\n                    <img src=\"bees-with-color/bee-A2DM.svg\" width=\"200\">\n                    <p><br>Your bonus pay is unchanged, and remains at $0.32.</p>\n            ","response":0,"trial_type":"html-button-response","trial_index":44,"time_elapsed":320015,"internal_node_id":"0.0-4.0-1.18","subject_id":"5f69e356d68b93020e622bf2","study_id":"6197b3f67c2b5cd3b6d9596a","session_id":"619bef86e87fc3fafc834e5f","condition":"contingent","relevant_dimensions":["antennae","pattern"],"bee_group":{"antennae":"B","wings":"X","pattern":"S","legs":"X"},"bonus":1.060000000000001},{"rt":975.0999999940395,"stimulus":"bees-with-color/bee-A1DF.svg","response":0,"trial_type":"image-button-response","trial_index":45,"time_elapsed":320992,"internal_node_id":"0.0-4.0-0.19","subject_id":"5f69e356d68b93020e622bf2","study_id":"6197b3f67c2b5cd3b6d9596a","session_id":"619bef86e87fc3fafc834e5f","condition":"contingent","relevant_dimensions":["antennae","pattern"],"bee_group":{"antennae":"B","wings":"X","pattern":"S","legs":"X"},"action":"harvest","summary":"good-harvest","bonus":1.060000000000001},{"rt":661.7000000178814,"stimulus":"\n                    <p><b>Action: <em>harvest</em></b></p>\n                    <p>This is the bee that you just saw.</p>\n                    <img src=\"bees-with-color/bee-A1DF.svg\" width=\"200\">\n                    <p><span class=\"greenText\"><b>Successful harvest!</b></span><br>Your pay has increased by $0.02. Your bonus pay is now $0.34.</p>\n            ","response":0,"trial_type":"html-button-response","trial_index":46,"time_elapsed":321655,"internal_node_id":"0.0-4.0-1.19","subject_id":"5f69e356d68b93020e622bf2","study_id":"6197b3f67c2b5cd3b6d9596a","session_id":"619bef86e87fc3fafc834e5f","condition":"contingent","relevant_dimensions":["antennae","pattern"],"bee_group":{"antennae":"B","wings":"X","pattern":"S","legs":"X"},"bonus":1.060000000000001},{"rt":3590.4000000059605,"stimulus":"bees-with-color/bee-B1SM.svg","response":1,"trial_type":"image-button-response","trial_index":47,"time_elapsed":325247,"internal_node_id":"0.0-4.0-0.20","subject_id":"5f69e356d68b93020e622bf2","study_id":"6197b3f67c2b5cd3b6d9596a","session_id":"619bef86e87fc3fafc834e5f","condition":"contingent","relevant_dimensions":["antennae","pattern"],"bee_group":{"antennae":"B","wings":"X","pattern":"S","legs":"X"},"action":"avoid","summary":"good-avoid","bonus":1.060000000000001},{"rt":558.6999999880791,"stimulus":"\n                    <p><b>Action: <em>avoid</em></b></p>\n                    <p>This is the bee that you just saw.</p>\n                    <img src=\"bees-with-color/bee-B1SM.svg\" width=\"200\">\n                    <p><br>Your bonus pay is unchanged, and remains at $0.34.</p>\n            ","response":0,"trial_type":"html-button-response","trial_index":48,"time_elapsed":325807,"internal_node_id":"0.0-4.0-1.20","subject_id":"5f69e356d68b93020e622bf2","study_id":"6197b3f67c2b5cd3b6d9596a","session_id":"619bef86e87fc3fafc834e5f","condition":"contingent","relevant_dimensions":["antennae","pattern"],"bee_group":{"antennae":"B","wings":"X","pattern":"S","legs":"X"},"bonus":1.060000000000001},{"rt":5006.600000023842,"stimulus":"bees-with-color/bee-A1DM.svg","response":0,"trial_type":"image-button-response","trial_index":49,"time_elapsed":330815,"internal_node_id":"0.0-4.0-0.21","subject_id":"5f69e356d68b93020e622bf2","study_id":"6197b3f67c2b5cd3b6d9596a","session_id":"619bef86e87fc3fafc834e5f","condition":"contingent","relevant_dimensions":["antennae","pattern"],"bee_group":{"antennae":"B","wings":"X","pattern":"S","legs":"X"},"action":"harvest","summary":"good-harvest","bonus":1.060000000000001},{"rt":742.5,"stimulus":"\n                    <p><b>Action: <em>harvest</em></b></p>\n                    <p>This is the bee that you just saw.</p>\n                    <img src=\"bees-with-color/bee-A1DM.svg\" width=\"200\">\n                    <p><span class=\"greenText\"><b>Successful harvest!</b></span><br>Your pay has increased by $0.02. Your bonus pay is now $0.36.</p>\n            ","response":0,"trial_type":"html-button-response","trial_index":50,"time_elapsed":331559,"internal_node_id":"0.0-4.0-1.21","subject_id":"5f69e356d68b93020e622bf2","study_id":"6197b3f67c2b5cd3b6d9596a","session_id":"619bef86e87fc3fafc834e5f","condition":"contingent","relevant_dimensions":["antennae","pattern"],"bee_group":{"antennae":"B","wings":"X","pattern":"S","legs":"X"},"bonus":1.060000000000001},{"rt":4013.699999988079,"stimulus":"bees-with-color/bee-B2SM.svg","response":1,"trial_type":"image-button-response","trial_index":51,"time_elapsed":335575,"internal_node_id":"0.0-4.0-0.22","subject_id":"5f69e356d68b93020e622bf2","study_id":"6197b3f67c2b5cd3b6d9596a","session_id":"619bef86e87fc3fafc834e5f","condition":"contingent","relevant_dimensions":["antennae","pattern"],"bee_group":{"antennae":"B","wings":"X","pattern":"S","legs":"X"},"action":"avoid","summary":"good-avoid","bonus":1.060000000000001},{"rt":830.6999999880791,"stimulus":"\n                    <p><b>Action: <em>avoid</em></b></p>\n                    <p>This is the bee that you just saw.</p>\n                    <img src=\"bees-with-color/bee-B2SM.svg\" width=\"200\">\n                    <p><br>Your bonus pay is unchanged, and remains at $0.36.</p>\n            ","response":0,"trial_type":"html-button-response","trial_index":52,"time_elapsed":336407,"internal_node_id":"0.0-4.0-1.22","subject_id":"5f69e356d68b93020e622bf2","study_id":"6197b3f67c2b5cd3b6d9596a","session_id":"619bef86e87fc3fafc834e5f","condition":"contingent","relevant_dimensions":["antennae","pattern"],"bee_group":{"antennae":"B","wings":"X","pattern":"S","legs":"X"},"bonus":1.060000000000001},{"rt":2486.600000023842,"stimulus":"bees-with-color/bee-A2DF.svg","response":0,"trial_type":"image-button-response","trial_index":53,"time_elapsed":338895,"internal_node_id":"0.0-4.0-0.23","subject_id":"5f69e356d68b93020e622bf2","study_id":"6197b3f67c2b5cd3b6d9596a","session_id":"619bef86e87fc3fafc834e5f","condition":"contingent","relevant_dimensions":["antennae","pattern"],"bee_group":{"antennae":"B","wings":"X","pattern":"S","legs":"X"},"action":"harvest","summary":"good-harvest","bonus":1.060000000000001},{"rt":1382.800000011921,"stimulus":"\n                    <p><b>Action: <em>harvest</em></b></p>\n                    <p>This is the bee that you just saw.</p>\n                    <img src=\"bees-with-color/bee-A2DF.svg\" width=\"200\">\n                    <p><span class=\"greenText\"><b>Successful harvest!</b></span><br>Your pay has increased by $0.02. Your bonus pay is now $0.38.</p>\n            ","response":0,"trial_type":"html-button-response","trial_index":54,"time_elapsed":340279,"internal_node_id":"0.0-4.0-1.23","subject_id":"5f69e356d68b93020e622bf2","study_id":"6197b3f67c2b5cd3b6d9596a","session_id":"619bef86e87fc3fafc834e5f","condition":"contingent","relevant_dimensions":["antennae","pattern"],"bee_group":{"antennae":"B","wings":"X","pattern":"S","legs":"X"},"bonus":1.060000000000001},{"rt":1725.9000000059605,"stimulus":"bees-with-color/bee-B1DF.svg","response":0,"trial_type":"image-button-response","trial_index":55,"time_elapsed":342007,"internal_node_id":"0.0-4.0-0.24","subject_id":"5f69e356d68b93020e622bf2","study_id":"6197b3f67c2b5cd3b6d9596a","session_id":"619bef86e87fc3fafc834e5f","condition":"contingent","relevant_dimensions":["antennae","pattern"],"bee_group":{"antennae":"B","wings":"X","pattern":"S","legs":"X"},"action":"harvest","summary":"good-harvest","bonus":1.060000000000001},{"rt":630.6999999880791,"stimulus":"\n                    <p><b>Action: <em>harvest</em></b></p>\n                    <p>This is the bee that you just saw.</p>\n                    <img src=\"bees-with-color/bee-B1DF.svg\" width=\"200\">\n                    <p><span class=\"greenText\"><b>Successful harvest!</b></span><br>Your pay has increased by $0.02. Your bonus pay is now $0.40.</p>\n            ","response":0,"trial_type":"html-button-response","trial_index":56,"time_elapsed":342639,"internal_node_id":"0.0-4.0-1.24","subject_id":"5f69e356d68b93020e622bf2","study_id":"6197b3f67c2b5cd3b6d9596a","session_id":"619bef86e87fc3fafc834e5f","condition":"contingent","relevant_dimensions":["antennae","pattern"],"bee_group":{"antennae":"B","wings":"X","pattern":"S","legs":"X"},"bonus":1.060000000000001},{"rt":1454.300000011921,"stimulus":"bees-with-color/bee-B1DM.svg","response":0,"trial_type":"image-button-response","trial_index":57,"time_elapsed":344095,"internal_node_id":"0.0-4.0-0.25","subject_id":"5f69e356d68b93020e622bf2","study_id":"6197b3f67c2b5cd3b6d9596a","session_id":"619bef86e87fc3fafc834e5f","condition":"contingent","relevant_dimensions":["antennae","pattern"],"bee_group":{"antennae":"B","wings":"X","pattern":"S","legs":"X"},"action":"harvest","summary":"good-harvest","bonus":1.060000000000001},{"rt":526,"stimulus":"\n                    <p><b>Action: <em>harvest</em></b></p>\n                    <p>This is the bee that you just saw.</p>\n                    <img src=\"bees-with-color/bee-B1DM.svg\" width=\"200\">\n                    <p><span class=\"greenText\"><b>Successful harvest!</b></span><br>Your pay has increased by $0.02. Your bonus pay is now $0.42.</p>\n            ","response":0,"trial_type":"html-button-response","trial_index":58,"time_elapsed":344623,"internal_node_id":"0.0-4.0-1.25","subject_id":"5f69e356d68b93020e622bf2","study_id":"6197b3f67c2b5cd3b6d9596a","session_id":"619bef86e87fc3fafc834e5f","condition":"contingent","relevant_dimensions":["antennae","pattern"],"bee_group":{"antennae":"B","wings":"X","pattern":"S","legs":"X"},"bonus":1.060000000000001},{"rt":1519.6000000238419,"stimulus":"bees-with-color/bee-B1SF.svg","response":1,"trial_type":"image-button-response","trial_index":59,"time_elapsed":346144,"internal_node_id":"0.0-4.0-0.26","subject_id":"5f69e356d68b93020e622bf2","study_id":"6197b3f67c2b5cd3b6d9596a","session_id":"619bef86e87fc3fafc834e5f","condition":"contingent","relevant_dimensions":["antennae","pattern"],"bee_group":{"antennae":"B","wings":"X","pattern":"S","legs":"X"},"action":"avoid","summary":"good-avoid","bonus":1.060000000000001},{"rt":581.4000000059605,"stimulus":"\n                    <p><b>Action: <em>avoid</em></b></p>\n                    <p>This is the bee that you just saw.</p>\n                    <img src=\"bees-with-color/bee-B1SF.svg\" width=\"200\">\n                    <p><br>Your bonus pay is unchanged, and remains at $0.42.</p>\n            ","response":0,"trial_type":"html-button-response","trial_index":60,"time_elapsed":346727,"internal_node_id":"0.0-4.0-1.26","subject_id":"5f69e356d68b93020e622bf2","study_id":"6197b3f67c2b5cd3b6d9596a","session_id":"619bef86e87fc3fafc834e5f","condition":"contingent","relevant_dimensions":["antennae","pattern"],"bee_group":{"antennae":"B","wings":"X","pattern":"S","legs":"X"},"bonus":1.060000000000001},{"rt":1293.699999988079,"stimulus":"bees-with-color/bee-B2DM.svg","response":0,"trial_type":"image-button-response","trial_index":61,"time_elapsed":348023,"internal_node_id":"0.0-4.0-0.27","subject_id":"5f69e356d68b93020e622bf2","study_id":"6197b3f67c2b5cd3b6d9596a","session_id":"619bef86e87fc3fafc834e5f","condition":"contingent","relevant_dimensions":["antennae","pattern"],"bee_group":{"antennae":"B","wings":"X","pattern":"S","legs":"X"},"action":"harvest","summary":"good-harvest","bonus":1.060000000000001},{"rt":694.7999999821186,"stimulus":"\n                    <p><b>Action: <em>harvest</em></b></p>\n                    <p>This is the bee that you just saw.</p>\n                    <img src=\"bees-with-color/bee-B2DM.svg\" width=\"200\">\n                    <p><span class=\"greenText\"><b>Successful harvest!</b></span><br>Your pay has increased by $0.02. Your bonus pay is now $0.44.</p>\n            ","response":0,"trial_type":"html-button-response","trial_index":62,"time_elapsed":348720,"internal_node_id":"0.0-4.0-1.27","subject_id":"5f69e356d68b93020e622bf2","study_id":"6197b3f67c2b5cd3b6d9596a","session_id":"619bef86e87fc3fafc834e5f","condition":"contingent","relevant_dimensions":["antennae","pattern"],"bee_group":{"antennae":"B","wings":"X","pattern":"S","legs":"X"},"bonus":1.060000000000001},{"rt":4550.200000017881,"stimulus":"bees-with-color/bee-A2SF.svg","response":1,"trial_type":"image-button-response","trial_index":63,"time_elapsed":353271,"internal_node_id":"0.0-4.0-0.28","subject_id":"5f69e356d68b93020e622bf2","study_id":"6197b3f67c2b5cd3b6d9596a","session_id":"619bef86e87fc3fafc834e5f","condition":"contingent","relevant_dimensions":["antennae","pattern"],"bee_group":{"antennae":"B","wings":"X","pattern":"S","legs":"X"},"action":"avoid","summary":"bad-avoid","bonus":1.060000000000001},{"rt":646.3999999761581,"stimulus":"\n                    <p><b>Action: <em>avoid</em></b></p>\n                    <p>This is the bee that you just saw.</p>\n                    <img src=\"bees-with-color/bee-A2SF.svg\" width=\"200\">\n                    <p><br>Your bonus pay is unchanged, and remains at $0.44.</p>\n            ","response":0,"trial_type":"html-button-response","trial_index":64,"time_elapsed":353919,"internal_node_id":"0.0-4.0-1.28","subject_id":"5f69e356d68b93020e622bf2","study_id":"6197b3f67c2b5cd3b6d9596a","session_id":"619bef86e87fc3fafc834e5f","condition":"contingent","relevant_dimensions":["antennae","pattern"],"bee_group":{"antennae":"B","wings":"X","pattern":"S","legs":"X"},"bonus":1.060000000000001},{"rt":830.6999999880791,"stimulus":"bees-with-color/bee-B2DF.svg","response":0,"trial_type":"image-button-response","trial_index":65,"time_elapsed":354751,"internal_node_id":"0.0-4.0-0.29","subject_id":"5f69e356d68b93020e622bf2","study_id":"6197b3f67c2b5cd3b6d9596a","session_id":"619bef86e87fc3fafc834e5f","condition":"contingent","relevant_dimensions":["antennae","pattern"],"bee_group":{"antennae":"B","wings":"X","pattern":"S","legs":"X"},"action":"harvest","summary":"good-harvest","bonus":1.060000000000001},{"rt":478.5,"stimulus":"\n                    <p><b>Action: <em>harvest</em></b></p>\n                    <p>This is the bee that you just saw.</p>\n                    <img src=\"bees-with-color/bee-B2DF.svg\" width=\"200\">\n                    <p><span class=\"greenText\"><b>Successful harvest!</b></span><br>Your pay has increased by $0.02. Your bonus pay is now $0.46.</p>\n            ","response":0,"trial_type":"html-button-response","trial_index":66,"time_elapsed":355231,"internal_node_id":"0.0-4.0-1.29","subject_id":"5f69e356d68b93020e622bf2","study_id":"6197b3f67c2b5cd3b6d9596a","session_id":"619bef86e87fc3fafc834e5f","condition":"contingent","relevant_dimensions":["antennae","pattern"],"bee_group":{"antennae":"B","wings":"X","pattern":"S","legs":"X"},"bonus":1.060000000000001},{"rt":999.1999999880791,"stimulus":"bees-with-color/bee-B2SF.svg","response":1,"trial_type":"image-button-response","trial_index":67,"time_elapsed":356231,"internal_node_id":"0.0-4.0-0.30","subject_id":"5f69e356d68b93020e622bf2","study_id":"6197b3f67c2b5cd3b6d9596a","session_id":"619bef86e87fc3fafc834e5f","condition":"contingent","relevant_dimensions":["antennae","pattern"],"bee_group":{"antennae":"B","wings":"X","pattern":"S","legs":"X"},"action":"avoid","summary":"good-avoid","bonus":1.060000000000001},{"rt":439.2000000178814,"stimulus":"\n                    <p><b>Action: <em>avoid</em></b></p>\n                    <p>This is the bee that you just saw.</p>\n                    <img src=\"bees-with-color/bee-B2SF.svg\" width=\"200\">\n                    <p><br>Your bonus pay is unchanged, and remains at $0.46.</p>\n            ","response":0,"trial_type":"html-button-response","trial_index":68,"time_elapsed":356671,"internal_node_id":"0.0-4.0-1.30","subject_id":"5f69e356d68b93020e622bf2","study_id":"6197b3f67c2b5cd3b6d9596a","session_id":"619bef86e87fc3fafc834e5f","condition":"contingent","relevant_dimensions":["antennae","pattern"],"bee_group":{"antennae":"B","wings":"X","pattern":"S","legs":"X"},"bonus":1.060000000000001},{"rt":6334.4000000059605,"stimulus":"bees-with-color/bee-A1SM.svg","response":1,"trial_type":"image-button-response","trial_index":69,"time_elapsed":363007,"internal_node_id":"0.0-4.0-0.31","subject_id":"5f69e356d68b93020e622bf2","study_id":"6197b3f67c2b5cd3b6d9596a","session_id":"619bef86e87fc3fafc834e5f","condition":"contingent","relevant_dimensions":["antennae","pattern"],"bee_group":{"antennae":"B","wings":"X","pattern":"S","legs":"X"},"action":"avoid","summary":"bad-avoid","bonus":1.060000000000001},{"rt":678.8999999761581,"stimulus":"\n                    <p><b>Action: <em>avoid</em></b></p>\n                    <p>This is the bee that you just saw.</p>\n                    <img src=\"bees-with-color/bee-A1SM.svg\" width=\"200\">\n                    <p><br>Your bonus pay is unchanged, and remains at $0.46.</p>\n            ","response":0,"trial_type":"html-button-response","trial_index":70,"time_elapsed":363687,"internal_node_id":"0.0-4.0-1.31","subject_id":"5f69e356d68b93020e622bf2","study_id":"6197b3f67c2b5cd3b6d9596a","session_id":"619bef86e87fc3fafc834e5f","condition":"contingent","relevant_dimensions":["antennae","pattern"],"bee_group":{"antennae":"B","wings":"X","pattern":"S","legs":"X"},"bonus":1.060000000000001},{"rt":6373.699999988079,"stimulus":"bees-with-color/bee-B1SF.svg","response":1,"trial_type":"image-button-response","trial_index":71,"time_elapsed":370063,"internal_node_id":"0.0-4.0-0.32","subject_id":"5f69e356d68b93020e622bf2","study_id":"6197b3f67c2b5cd3b6d9596a","session_id":"619bef86e87fc3fafc834e5f","condition":"contingent","relevant_dimensions":["antennae","pattern"],"bee_group":{"antennae":"B","wings":"X","pattern":"S","legs":"X"},"action":"avoid","summary":"good-avoid","bonus":1.060000000000001},{"rt":447.09999999403954,"stimulus":"\n                    <p><b>Action: <em>avoid</em></b></p>\n                    <p>This is the bee that you just saw.</p>\n                    <img src=\"bees-with-color/bee-B1SF.svg\" width=\"200\">\n                    <p><br>Your bonus pay is unchanged, and remains at $0.46.</p>\n            ","response":0,"trial_type":"html-button-response","trial_index":72,"time_elapsed":370511,"internal_node_id":"0.0-4.0-1.32","subject_id":"5f69e356d68b93020e622bf2","study_id":"6197b3f67c2b5cd3b6d9596a","session_id":"619bef86e87fc3fafc834e5f","condition":"contingent","relevant_dimensions":["antennae","pattern"],"bee_group":{"antennae":"B","wings":"X","pattern":"S","legs":"X"},"bonus":1.060000000000001},{"rt":2414.2999999821186,"stimulus":"bees-with-color/bee-A2DF.svg","response":0,"trial_type":"image-button-response","trial_index":73,"time_elapsed":372927,"internal_node_id":"0.0-4.0-0.33","subject_id":"5f69e356d68b93020e622bf2","study_id":"6197b3f67c2b5cd3b6d9596a","session_id":"619bef86e87fc3fafc834e5f","condition":"contingent","relevant_dimensions":["antennae","pattern"],"bee_group":{"antennae":"B","wings":"X","pattern":"S","legs":"X"},"action":"harvest","summary":"good-harvest","bonus":1.060000000000001},{"rt":655.1000000238419,"stimulus":"\n                    <p><b>Action: <em>harvest</em></b></p>\n                    <p>This is the bee that you just saw.</p>\n                    <img src=\"bees-with-color/bee-A2DF.svg\" width=\"200\">\n                    <p><span class=\"greenText\"><b>Successful harvest!</b></span><br>Your pay has increased by $0.02. Your bonus pay is now $0.48.</p>\n            ","response":0,"trial_type":"html-button-response","trial_index":74,"time_elapsed":373584,"internal_node_id":"0.0-4.0-1.33","subject_id":"5f69e356d68b93020e622bf2","study_id":"6197b3f67c2b5cd3b6d9596a","session_id":"619bef86e87fc3fafc834e5f","condition":"contingent","relevant_dimensions":["antennae","pattern"],"bee_group":{"antennae":"B","wings":"X","pattern":"S","legs":"X"},"bonus":1.060000000000001},{"rt":997.5,"stimulus":"bees-with-color/bee-A2DM.svg","response":0,"trial_type":"image-button-response","trial_index":75,"time_elapsed":374583,"internal_node_id":"0.0-4.0-0.34","subject_id":"5f69e356d68b93020e622bf2","study_id":"6197b3f67c2b5cd3b6d9596a","session_id":"619bef86e87fc3fafc834e5f","condition":"contingent","relevant_dimensions":["antennae","pattern"],"bee_group":{"antennae":"B","wings":"X","pattern":"S","legs":"X"},"action":"harvest","summary":"good-harvest","bonus":1.060000000000001},{"rt":501.5,"stimulus":"\n                    <p><b>Action: <em>harvest</em></b></p>\n                    <p>This is the bee that you just saw.</p>\n                    <img src=\"bees-with-color/bee-A2DM.svg\" width=\"200\">\n                    <p><span class=\"greenText\"><b>Successful harvest!</b></span><br>Your pay has increased by $0.02. Your bonus pay is now $0.50.</p>\n            ","response":0,"trial_type":"html-button-response","trial_index":76,"time_elapsed":375087,"internal_node_id":"0.0-4.0-1.34","subject_id":"5f69e356d68b93020e622bf2","study_id":"6197b3f67c2b5cd3b6d9596a","session_id":"619bef86e87fc3fafc834e5f","condition":"contingent","relevant_dimensions":["antennae","pattern"],"bee_group":{"antennae":"B","wings":"X","pattern":"S","legs":"X"},"bonus":1.060000000000001},{"rt":685.9000000059605,"stimulus":"bees-with-color/bee-B2DM.svg","response":0,"trial_type":"image-button-response","trial_index":77,"time_elapsed":375775,"internal_node_id":"0.0-4.0-0.35","subject_id":"5f69e356d68b93020e622bf2","study_id":"6197b3f67c2b5cd3b6d9596a","session_id":"619bef86e87fc3fafc834e5f","condition":"contingent","relevant_dimensions":["antennae","pattern"],"bee_group":{"antennae":"B","wings":"X","pattern":"S","legs":"X"},"action":"harvest","summary":"good-harvest","bonus":1.060000000000001},{"rt":446.09999999403954,"stimulus":"\n                    <p><b>Action: <em>harvest</em></b></p>\n                    <p>This is the bee that you just saw.</p>\n                    <img src=\"bees-with-color/bee-B2DM.svg\" width=\"200\">\n                    <p><span class=\"greenText\"><b>Successful harvest!</b></span><br>Your pay has increased by $0.02. Your bonus pay is now $0.52.</p>\n            ","response":0,"trial_type":"html-button-response","trial_index":78,"time_elapsed":376223,"internal_node_id":"0.0-4.0-1.35","subject_id":"5f69e356d68b93020e622bf2","study_id":"6197b3f67c2b5cd3b6d9596a","session_id":"619bef86e87fc3fafc834e5f","condition":"contingent","relevant_dimensions":["antennae","pattern"],"bee_group":{"antennae":"B","wings":"X","pattern":"S","legs":"X"},"bonus":1.060000000000001},{"rt":1111.0999999940395,"stimulus":"bees-with-color/bee-A1SM.svg","response":1,"trial_type":"image-button-response","trial_index":79,"time_elapsed":377335,"internal_node_id":"0.0-4.0-0.36","subject_id":"5f69e356d68b93020e622bf2","study_id":"6197b3f67c2b5cd3b6d9596a","session_id":"619bef86e87fc3fafc834e5f","condition":"contingent","relevant_dimensions":["antennae","pattern"],"bee_group":{"antennae":"B","wings":"X","pattern":"S","legs":"X"},"action":"avoid","summary":"bad-avoid","bonus":1.060000000000001},{"rt":453.19999998807907,"stimulus":"\n                    <p><b>Action: <em>avoid</em></b></p>\n                    <p>This is the bee that you just saw.</p>\n                    <img src=\"bees-with-color/bee-A1SM.svg\" width=\"200\">\n                    <p><br>Your bonus pay is unchanged, and remains at $0.52.</p>\n            ","response":0,"trial_type":"html-button-response","trial_index":80,"time_elapsed":377791,"internal_node_id":"0.0-4.0-1.36","subject_id":"5f69e356d68b93020e622bf2","study_id":"6197b3f67c2b5cd3b6d9596a","session_id":"619bef86e87fc3fafc834e5f","condition":"contingent","relevant_dimensions":["antennae","pattern"],"bee_group":{"antennae":"B","wings":"X","pattern":"S","legs":"X"},"bonus":1.060000000000001},{"rt":638.5,"stimulus":"bees-with-color/bee-B2DF.svg","response":0,"trial_type":"image-button-response","trial_index":81,"time_elapsed":378431,"internal_node_id":"0.0-4.0-0.37","subject_id":"5f69e356d68b93020e622bf2","study_id":"6197b3f67c2b5cd3b6d9596a","session_id":"619bef86e87fc3fafc834e5f","condition":"contingent","relevant_dimensions":["antennae","pattern"],"bee_group":{"antennae":"B","wings":"X","pattern":"S","legs":"X"},"action":"harvest","summary":"good-harvest","bonus":1.060000000000001},{"rt":390.80000001192093,"stimulus":"\n                    <p><b>Action: <em>harvest</em></b></p>\n                    <p>This is the bee that you just saw.</p>\n                    <img src=\"bees-with-color/bee-B2DF.svg\" width=\"200\">\n                    <p><span class=\"greenText\"><b>Successful harvest!</b></span><br>Your pay has increased by $0.02. Your bonus pay is now $0.54.</p>\n            ","response":0,"trial_type":"html-button-response","trial_index":82,"time_elapsed":378823,"internal_node_id":"0.0-4.0-1.37","subject_id":"5f69e356d68b93020e622bf2","study_id":"6197b3f67c2b5cd3b6d9596a","session_id":"619bef86e87fc3fafc834e5f","condition":"contingent","relevant_dimensions":["antennae","pattern"],"bee_group":{"antennae":"B","wings":"X","pattern":"S","legs":"X"},"bonus":1.060000000000001},{"rt":966.7999999821186,"stimulus":"bees-with-color/bee-B1DM.svg","response":0,"trial_type":"image-button-response","trial_index":83,"time_elapsed":379791,"internal_node_id":"0.0-4.0-0.38","subject_id":"5f69e356d68b93020e622bf2","study_id":"6197b3f67c2b5cd3b6d9596a","session_id":"619bef86e87fc3fafc834e5f","condition":"contingent","relevant_dimensions":["antennae","pattern"],"bee_group":{"antennae":"B","wings":"X","pattern":"S","legs":"X"},"action":"harvest","summary":"good-harvest","bonus":1.060000000000001},{"rt":444.40000000596046,"stimulus":"\n                    <p><b>Action: <em>harvest</em></b></p>\n                    <p>This is the bee that you just saw.</p>\n                    <img src=\"bees-with-color/bee-B1DM.svg\" width=\"200\">\n                    <p><span class=\"greenText\"><b>Successful harvest!</b></span><br>Your pay has increased by $0.02. Your bonus pay is now $0.56.</p>\n            ","response":0,"trial_type":"html-button-response","trial_index":84,"time_elapsed":380239,"internal_node_id":"0.0-4.0-1.38","subject_id":"5f69e356d68b93020e622bf2","study_id":"6197b3f67c2b5cd3b6d9596a","session_id":"619bef86e87fc3fafc834e5f","condition":"contingent","relevant_dimensions":["antennae","pattern"],"bee_group":{"antennae":"B","wings":"X","pattern":"S","legs":"X"},"bonus":1.060000000000001},{"rt":974.5999999940395,"stimulus":"bees-with-color/bee-B2SM.svg","response":1,"trial_type":"image-button-response","trial_index":85,"time_elapsed":381215,"internal_node_id":"0.0-4.0-0.39","subject_id":"5f69e356d68b93020e622bf2","study_id":"6197b3f67c2b5cd3b6d9596a","session_id":"619bef86e87fc3fafc834e5f","condition":"contingent","relevant_dimensions":["antennae","pattern"],"bee_group":{"antennae":"B","wings":"X","pattern":"S","legs":"X"},"action":"avoid","summary":"good-avoid","bonus":1.060000000000001},{"rt":422,"stimulus":"\n                    <p><b>Action: <em>avoid</em></b></p>\n                    <p>This is the bee that you just saw.</p>\n                    <img src=\"bees-with-color/bee-B2SM.svg\" width=\"200\">\n                    <p><br>Your bonus pay is unchanged, and remains at $0.56.</p>\n            ","response":0,"trial_type":"html-button-response","trial_index":86,"time_elapsed":381639,"internal_node_id":"0.0-4.0-1.39","subject_id":"5f69e356d68b93020e622bf2","study_id":"6197b3f67c2b5cd3b6d9596a","session_id":"619bef86e87fc3fafc834e5f","condition":"contingent","relevant_dimensions":["antennae","pattern"],"bee_group":{"antennae":"B","wings":"X","pattern":"S","legs":"X"},"bonus":1.060000000000001},{"rt":1071,"stimulus":"bees-with-color/bee-A2SM.svg","response":1,"trial_type":"image-button-response","trial_index":87,"time_elapsed":382711,"internal_node_id":"0.0-4.0-0.40","subject_id":"5f69e356d68b93020e622bf2","study_id":"6197b3f67c2b5cd3b6d9596a","session_id":"619bef86e87fc3fafc834e5f","condition":"contingent","relevant_dimensions":["antennae","pattern"],"bee_group":{"antennae":"B","wings":"X","pattern":"S","legs":"X"},"action":"avoid","summary":"bad-avoid","bonus":1.060000000000001},{"rt":390.5,"stimulus":"\n                    <p><b>Action: <em>avoid</em></b></p>\n                    <p>This is the bee that you just saw.</p>\n                    <img src=\"bees-with-color/bee-A2SM.svg\" width=\"200\">\n                    <p><br>Your bonus pay is unchanged, and remains at $0.56.</p>\n            ","response":0,"trial_type":"html-button-response","trial_index":88,"time_elapsed":383103,"internal_node_id":"0.0-4.0-1.40","subject_id":"5f69e356d68b93020e622bf2","study_id":"6197b3f67c2b5cd3b6d9596a","session_id":"619bef86e87fc3fafc834e5f","condition":"contingent","relevant_dimensions":["antennae","pattern"],"bee_group":{"antennae":"B","wings":"X","pattern":"S","legs":"X"},"bonus":1.060000000000001},{"rt":750.6000000238419,"stimulus":"bees-with-color/bee-B2SF.svg","response":1,"trial_type":"image-button-response","trial_index":89,"time_elapsed":383855,"internal_node_id":"0.0-4.0-0.41","subject_id":"5f69e356d68b93020e622bf2","study_id":"6197b3f67c2b5cd3b6d9596a","session_id":"619bef86e87fc3fafc834e5f","condition":"contingent","relevant_dimensions":["antennae","pattern"],"bee_group":{"antennae":"B","wings":"X","pattern":"S","legs":"X"},"action":"avoid","summary":"good-avoid","bonus":1.060000000000001},{"rt":357.90000000596046,"stimulus":"\n                    <p><b>Action: <em>avoid</em></b></p>\n                    <p>This is the bee that you just saw.</p>\n                    <img src=\"bees-with-color/bee-B2SF.svg\" width=\"200\">\n                    <p><br>Your bonus pay is unchanged, and remains at $0.56.</p>\n            ","response":0,"trial_type":"html-button-response","trial_index":90,"time_elapsed":384215,"internal_node_id":"0.0-4.0-1.41","subject_id":"5f69e356d68b93020e622bf2","study_id":"6197b3f67c2b5cd3b6d9596a","session_id":"619bef86e87fc3fafc834e5f","condition":"contingent","relevant_dimensions":["antennae","pattern"],"bee_group":{"antennae":"B","wings":"X","pattern":"S","legs":"X"},"bonus":1.060000000000001},{"rt":670.4000000059605,"stimulus":"bees-with-color/bee-A1DM.svg","response":0,"trial_type":"image-button-response","trial_index":91,"time_elapsed":384887,"internal_node_id":"0.0-4.0-0.42","subject_id":"5f69e356d68b93020e622bf2","study_id":"6197b3f67c2b5cd3b6d9596a","session_id":"619bef86e87fc3fafc834e5f","condition":"contingent","relevant_dimensions":["antennae","pattern"],"bee_group":{"antennae":"B","wings":"X","pattern":"S","legs":"X"},"action":"harvest","summary":"good-harvest","bonus":1.060000000000001},{"rt":821.5999999940395,"stimulus":"\n                    <p><b>Action: <em>harvest</em></b></p>\n                    <p>This is the bee that you just saw.</p>\n                    <img src=\"bees-with-color/bee-A1DM.svg\" width=\"200\">\n                    <p><span class=\"greenText\"><b>Successful harvest!</b></span><br>Your pay has increased by $0.02. Your bonus pay is now $0.58.</p>\n            ","response":0,"trial_type":"html-button-response","trial_index":92,"time_elapsed":385711,"internal_node_id":"0.0-4.0-1.42","subject_id":"5f69e356d68b93020e622bf2","study_id":"6197b3f67c2b5cd3b6d9596a","session_id":"619bef86e87fc3fafc834e5f","condition":"contingent","relevant_dimensions":["antennae","pattern"],"bee_group":{"antennae":"B","wings":"X","pattern":"S","legs":"X"},"bonus":1.060000000000001},{"rt":806.9000000059605,"stimulus":"bees-with-color/bee-A1SF.svg","response":1,"trial_type":"image-button-response","trial_index":93,"time_elapsed":386520,"internal_node_id":"0.0-4.0-0.43","subject_id":"5f69e356d68b93020e622bf2","study_id":"6197b3f67c2b5cd3b6d9596a","session_id":"619bef86e87fc3fafc834e5f","condition":"contingent","relevant_dimensions":["antennae","pattern"],"bee_group":{"antennae":"B","wings":"X","pattern":"S","legs":"X"},"action":"avoid","summary":"bad-avoid","bonus":1.060000000000001},{"rt":445.7000000178814,"stimulus":"\n                    <p><b>Action: <em>avoid</em></b></p>\n                    <p>This is the bee that you just saw.</p>\n                    <img src=\"bees-with-color/bee-A1SF.svg\" width=\"200\">\n                    <p><br>Your bonus pay is unchanged, and remains at $0.58.</p>\n            ","response":0,"trial_type":"html-button-response","trial_index":94,"time_elapsed":386967,"internal_node_id":"0.0-4.0-1.43","subject_id":"5f69e356d68b93020e622bf2","study_id":"6197b3f67c2b5cd3b6d9596a","session_id":"619bef86e87fc3fafc834e5f","condition":"contingent","relevant_dimensions":["antennae","pattern"],"bee_group":{"antennae":"B","wings":"X","pattern":"S","legs":"X"},"bonus":1.060000000000001},{"rt":798.4000000059605,"stimulus":"bees-with-color/bee-B1SM.svg","response":1,"trial_type":"image-button-response","trial_index":95,"time_elapsed":387767,"internal_node_id":"0.0-4.0-0.44","subject_id":"5f69e356d68b93020e622bf2","study_id":"6197b3f67c2b5cd3b6d9596a","session_id":"619bef86e87fc3fafc834e5f","condition":"contingent","relevant_dimensions":["antennae","pattern"],"bee_group":{"antennae":"B","wings":"X","pattern":"S","legs":"X"},"action":"avoid","summary":"good-avoid","bonus":1.060000000000001},{"rt":406.09999999403954,"stimulus":"\n                    <p><b>Action: <em>avoid</em></b></p>\n                    <p>This is the bee that you just saw.</p>\n                    <img src=\"bees-with-color/bee-B1SM.svg\" width=\"200\">\n                    <p><br>Your bonus pay is unchanged, and remains at $0.58.</p>\n            ","response":0,"trial_type":"html-button-response","trial_index":96,"time_elapsed":388175,"internal_node_id":"0.0-4.0-1.44","subject_id":"5f69e356d68b93020e622bf2","study_id":"6197b3f67c2b5cd3b6d9596a","session_id":"619bef86e87fc3fafc834e5f","condition":"contingent","relevant_dimensions":["antennae","pattern"],"bee_group":{"antennae":"B","wings":"X","pattern":"S","legs":"X"},"bonus":1.060000000000001},{"rt":877.9000000059605,"stimulus":"bees-with-color/bee-A1DF.svg","response":0,"trial_type":"image-button-response","trial_index":97,"time_elapsed":389055,"internal_node_id":"0.0-4.0-0.45","subject_id":"5f69e356d68b93020e622bf2","study_id":"6197b3f67c2b5cd3b6d9596a","session_id":"619bef86e87fc3fafc834e5f","condition":"contingent","relevant_dimensions":["antennae","pattern"],"bee_group":{"antennae":"B","wings":"X","pattern":"S","legs":"X"},"action":"harvest","summary":"good-harvest","bonus":1.060000000000001},{"rt":390.80000001192093,"stimulus":"\n                    <p><b>Action: <em>harvest</em></b></p>\n                    <p>This is the bee that you just saw.</p>\n                    <img src=\"bees-with-color/bee-A1DF.svg\" width=\"200\">\n                    <p><span class=\"greenText\"><b>Successful harvest!</b></span><br>Your pay has increased by $0.02. Your bonus pay is now $0.60.</p>\n            ","response":0,"trial_type":"html-button-response","trial_index":98,"time_elapsed":389447,"internal_node_id":"0.0-4.0-1.45","subject_id":"5f69e356d68b93020e622bf2","study_id":"6197b3f67c2b5cd3b6d9596a","session_id":"619bef86e87fc3fafc834e5f","condition":"contingent","relevant_dimensions":["antennae","pattern"],"bee_group":{"antennae":"B","wings":"X","pattern":"S","legs":"X"},"bonus":1.060000000000001},{"rt":5479,"stimulus":"bees-with-color/bee-B1DF.svg","response":0,"trial_type":"image-button-response","trial_index":99,"time_elapsed":394927,"internal_node_id":"0.0-4.0-0.46","subject_id":"5f69e356d68b93020e622bf2","study_id":"6197b3f67c2b5cd3b6d9596a","session_id":"619bef86e87fc3fafc834e5f","condition":"contingent","relevant_dimensions":["antennae","pattern"],"bee_group":{"antennae":"B","wings":"X","pattern":"S","legs":"X"},"action":"harvest","summary":"good-harvest","bonus":1.060000000000001},{"rt":542.5999999940395,"stimulus":"\n                    <p><b>Action: <em>harvest</em></b></p>\n                    <p>This is the bee that you just saw.</p>\n                    <img src=\"bees-with-color/bee-B1DF.svg\" width=\"200\">\n                    <p><span class=\"greenText\"><b>Successful harvest!</b></span><br>Your pay has increased by $0.02. Your bonus pay is now $0.62.</p>\n            ","response":0,"trial_type":"html-button-response","trial_index":100,"time_elapsed":395471,"internal_node_id":"0.0-4.0-1.46","subject_id":"5f69e356d68b93020e622bf2","study_id":"6197b3f67c2b5cd3b6d9596a","session_id":"619bef86e87fc3fafc834e5f","condition":"contingent","relevant_dimensions":["antennae","pattern"],"bee_group":{"antennae":"B","wings":"X","pattern":"S","legs":"X"},"bonus":1.060000000000001},{"rt":718.5999999940395,"stimulus":"bees-with-color/bee-A2SF.svg","response":1,"trial_type":"image-button-response","trial_index":101,"time_elapsed":396191,"internal_node_id":"0.0-4.0-0.47","subject_id":"5f69e356d68b93020e622bf2","study_id":"6197b3f67c2b5cd3b6d9596a","session_id":"619bef86e87fc3fafc834e5f","condition":"contingent","relevant_dimensions":["antennae","pattern"],"bee_group":{"antennae":"B","wings":"X","pattern":"S","legs":"X"},"action":"avoid","summary":"bad-avoid","bonus":1.060000000000001},{"rt":510.40000000596046,"stimulus":"\n                    <p><b>Action: <em>avoid</em></b></p>\n                    <p>This is the bee that you just saw.</p>\n                    <img src=\"bees-with-color/bee-A2SF.svg\" width=\"200\">\n                    <p><br>Your bonus pay is unchanged, and remains at $0.62.</p>\n            ","response":0,"trial_type":"html-button-response","trial_index":102,"time_elapsed":396703,"internal_node_id":"0.0-4.0-1.47","subject_id":"5f69e356d68b93020e622bf2","study_id":"6197b3f67c2b5cd3b6d9596a","session_id":"619bef86e87fc3fafc834e5f","condition":"contingent","relevant_dimensions":["antennae","pattern"],"bee_group":{"antennae":"B","wings":"X","pattern":"S","legs":"X"},"bonus":1.060000000000001},{"rt":462.90000000596046,"stimulus":"bees-with-color/bee-B1SM.svg","response":1,"trial_type":"image-button-response","trial_index":103,"time_elapsed":397167,"internal_node_id":"0.0-4.0-0.48","subject_id":"5f69e356d68b93020e622bf2","study_id":"6197b3f67c2b5cd3b6d9596a","session_id":"619bef86e87fc3fafc834e5f","condition":"contingent","relevant_dimensions":["antennae","pattern"],"bee_group":{"antennae":"B","wings":"X","pattern":"S","legs":"X"},"action":"avoid","summary":"good-avoid","bonus":1.060000000000001},{"rt":358.09999999403954,"stimulus":"\n                    <p><b>Action: <em>avoid</em></b></p>\n                    <p>This is the bee that you just saw.</p>\n                    <img src=\"bees-with-color/bee-B1SM.svg\" width=\"200\">\n                    <p><br>Your bonus pay is unchanged, and remains at $0.62.</p>\n            ","response":0,"trial_type":"html-button-response","trial_index":104,"time_elapsed":397527,"internal_node_id":"0.0-4.0-1.48","subject_id":"5f69e356d68b93020e622bf2","study_id":"6197b3f67c2b5cd3b6d9596a","session_id":"619bef86e87fc3fafc834e5f","condition":"contingent","relevant_dimensions":["antennae","pattern"],"bee_group":{"antennae":"B","wings":"X","pattern":"S","legs":"X"},"bonus":1.060000000000001},{"rt":662.7999999821186,"stimulus":"bees-with-color/bee-A2DM.svg","response":0,"trial_type":"image-button-response","trial_index":105,"time_elapsed":398191,"internal_node_id":"0.0-4.0-0.49","subject_id":"5f69e356d68b93020e622bf2","study_id":"6197b3f67c2b5cd3b6d9596a","session_id":"619bef86e87fc3fafc834e5f","condition":"contingent","relevant_dimensions":["antennae","pattern"],"bee_group":{"antennae":"B","wings":"X","pattern":"S","legs":"X"},"action":"harvest","summary":"good-harvest","bonus":1.060000000000001},{"rt":343,"stimulus":"\n                    <p><b>Action: <em>harvest</em></b></p>\n                    <p>This is the bee that you just saw.</p>\n                    <img src=\"bees-with-color/bee-A2DM.svg\" width=\"200\">\n                    <p><span class=\"greenText\"><b>Successful harvest!</b></span><br>Your pay has increased by $0.02. Your bonus pay is now $0.64.</p>\n            ","response":0,"trial_type":"html-button-response","trial_index":106,"time_elapsed":398536,"internal_node_id":"0.0-4.0-1.49","subject_id":"5f69e356d68b93020e622bf2","study_id":"6197b3f67c2b5cd3b6d9596a","session_id":"619bef86e87fc3fafc834e5f","condition":"contingent","relevant_dimensions":["antennae","pattern"],"bee_group":{"antennae":"B","wings":"X","pattern":"S","legs":"X"},"bonus":1.060000000000001},{"rt":477.5,"stimulus":"bees-with-color/bee-A2DF.svg","response":1,"trial_type":"image-button-response","trial_index":107,"time_elapsed":399015,"internal_node_id":"0.0-4.0-0.50","subject_id":"5f69e356d68b93020e622bf2","study_id":"6197b3f67c2b5cd3b6d9596a","session_id":"619bef86e87fc3fafc834e5f","condition":"contingent","relevant_dimensions":["antennae","pattern"],"bee_group":{"antennae":"B","wings":"X","pattern":"S","legs":"X"},"action":"avoid","summary":"bad-avoid","bonus":1.060000000000001},{"rt":1150.0999999940395,"stimulus":"\n                    <p><b>Action: <em>avoid</em></b></p>\n                    <p>This is the bee that you just saw.</p>\n                    <img src=\"bees-with-color/bee-A2DF.svg\" width=\"200\">\n                    <p><br>Your bonus pay is unchanged, and remains at $0.64.</p>\n            ","response":0,"trial_type":"html-button-response","trial_index":108,"time_elapsed":400167,"internal_node_id":"0.0-4.0-1.50","subject_id":"5f69e356d68b93020e622bf2","study_id":"6197b3f67c2b5cd3b6d9596a","session_id":"619bef86e87fc3fafc834e5f","condition":"contingent","relevant_dimensions":["antennae","pattern"],"bee_group":{"antennae":"B","wings":"X","pattern":"S","legs":"X"},"bonus":1.060000000000001},{"rt":686.7000000178814,"stimulus":"bees-with-color/bee-B1DM.svg","response":0,"trial_type":"image-button-response","trial_index":109,"time_elapsed":400855,"internal_node_id":"0.0-4.0-0.51","subject_id":"5f69e356d68b93020e622bf2","study_id":"6197b3f67c2b5cd3b6d9596a","session_id":"619bef86e87fc3fafc834e5f","condition":"contingent","relevant_dimensions":["antennae","pattern"],"bee_group":{"antennae":"B","wings":"X","pattern":"S","legs":"X"},"action":"harvest","summary":"good-harvest","bonus":1.060000000000001},{"rt":438,"stimulus":"\n                    <p><b>Action: <em>harvest</em></b></p>\n                    <p>This is the bee that you just saw.</p>\n                    <img src=\"bees-with-color/bee-B1DM.svg\" width=\"200\">\n                    <p><span class=\"greenText\"><b>Successful harvest!</b></span><br>Your pay has increased by $0.02. Your bonus pay is now $0.66.</p>\n            ","response":0,"trial_type":"html-button-response","trial_index":110,"time_elapsed":401295,"internal_node_id":"0.0-4.0-1.51","subject_id":"5f69e356d68b93020e622bf2","study_id":"6197b3f67c2b5cd3b6d9596a","session_id":"619bef86e87fc3fafc834e5f","condition":"contingent","relevant_dimensions":["antennae","pattern"],"bee_group":{"antennae":"B","wings":"X","pattern":"S","legs":"X"},"bonus":1.060000000000001},{"rt":847.0999999940395,"stimulus":"bees-with-color/bee-A1DF.svg","response":0,"trial_type":"image-button-response","trial_index":111,"time_elapsed":402143,"internal_node_id":"0.0-4.0-0.52","subject_id":"5f69e356d68b93020e622bf2","study_id":"6197b3f67c2b5cd3b6d9596a","session_id":"619bef86e87fc3fafc834e5f","condition":"contingent","relevant_dimensions":["antennae","pattern"],"bee_group":{"antennae":"B","wings":"X","pattern":"S","legs":"X"},"action":"harvest","summary":"good-harvest","bonus":1.060000000000001},{"rt":366.40000000596046,"stimulus":"\n                    <p><b>Action: <em>harvest</em></b></p>\n                    <p>This is the bee that you just saw.</p>\n                    <img src=\"bees-with-color/bee-A1DF.svg\" width=\"200\">\n                    <p><span class=\"greenText\"><b>Successful harvest!</b></span><br>Your pay has increased by $0.02. Your bonus pay is now $0.68.</p>\n            ","response":0,"trial_type":"html-button-response","trial_index":112,"time_elapsed":402511,"internal_node_id":"0.0-4.0-1.52","subject_id":"5f69e356d68b93020e622bf2","study_id":"6197b3f67c2b5cd3b6d9596a","session_id":"619bef86e87fc3fafc834e5f","condition":"contingent","relevant_dimensions":["antennae","pattern"],"bee_group":{"antennae":"B","wings":"X","pattern":"S","legs":"X"},"bonus":1.060000000000001},{"rt":671.1999999880791,"stimulus":"bees-with-color/bee-A2SF.svg","response":1,"trial_type":"image-button-response","trial_index":113,"time_elapsed":403183,"internal_node_id":"0.0-4.0-0.53","subject_id":"5f69e356d68b93020e622bf2","study_id":"6197b3f67c2b5cd3b6d9596a","session_id":"619bef86e87fc3fafc834e5f","condition":"contingent","relevant_dimensions":["antennae","pattern"],"bee_group":{"antennae":"B","wings":"X","pattern":"S","legs":"X"},"action":"avoid","summary":"bad-avoid","bonus":1.060000000000001},{"rt":693.5,"stimulus":"\n                    <p><b>Action: <em>avoid</em></b></p>\n                    <p>This is the bee that you just saw.</p>\n                    <img src=\"bees-with-color/bee-A2SF.svg\" width=\"200\">\n                    <p><br>Your bonus pay is unchanged, and remains at $0.68.</p>\n            ","response":0,"trial_type":"html-button-response","trial_index":114,"time_elapsed":403879,"internal_node_id":"0.0-4.0-1.53","subject_id":"5f69e356d68b93020e622bf2","study_id":"6197b3f67c2b5cd3b6d9596a","session_id":"619bef86e87fc3fafc834e5f","condition":"contingent","relevant_dimensions":["antennae","pattern"],"bee_group":{"antennae":"B","wings":"X","pattern":"S","legs":"X"},"bonus":1.060000000000001},{"rt":526.5,"stimulus":"bees-with-color/bee-B1SF.svg","response":1,"trial_type":"image-button-response","trial_index":115,"time_elapsed":404407,"internal_node_id":"0.0-4.0-0.54","subject_id":"5f69e356d68b93020e622bf2","study_id":"6197b3f67c2b5cd3b6d9596a","session_id":"619bef86e87fc3fafc834e5f","condition":"contingent","relevant_dimensions":["antennae","pattern"],"bee_group":{"antennae":"B","wings":"X","pattern":"S","legs":"X"},"action":"avoid","summary":"good-avoid","bonus":1.060000000000001},{"rt":359.2000000178814,"stimulus":"\n                    <p><b>Action: <em>avoid</em></b></p>\n                    <p>This is the bee that you just saw.</p>\n                    <img src=\"bees-with-color/bee-B1SF.svg\" width=\"200\">\n                    <p><br>Your bonus pay is unchanged, and remains at $0.68.</p>\n            ","response":0,"trial_type":"html-button-response","trial_index":116,"time_elapsed":404767,"internal_node_id":"0.0-4.0-1.54","subject_id":"5f69e356d68b93020e622bf2","study_id":"6197b3f67c2b5cd3b6d9596a","session_id":"619bef86e87fc3fafc834e5f","condition":"contingent","relevant_dimensions":["antennae","pattern"],"bee_group":{"antennae":"B","wings":"X","pattern":"S","legs":"X"},"bonus":1.060000000000001},{"rt":718.6000000238419,"stimulus":"bees-with-color/bee-B1DF.svg","response":0,"trial_type":"image-button-response","trial_index":117,"time_elapsed":405487,"internal_node_id":"0.0-4.0-0.55","subject_id":"5f69e356d68b93020e622bf2","study_id":"6197b3f67c2b5cd3b6d9596a","session_id":"619bef86e87fc3fafc834e5f","condition":"contingent","relevant_dimensions":["antennae","pattern"],"bee_group":{"antennae":"B","wings":"X","pattern":"S","legs":"X"},"action":"harvest","summary":"good-harvest","bonus":1.060000000000001},{"rt":358.5,"stimulus":"\n                    <p><b>Action: <em>harvest</em></b></p>\n                    <p>This is the bee that you just saw.</p>\n                    <img src=\"bees-with-color/bee-B1DF.svg\" width=\"200\">\n                    <p><span class=\"greenText\"><b>Successful harvest!</b></span><br>Your pay has increased by $0.02. Your bonus pay is now $0.70.</p>\n            ","response":0,"trial_type":"html-button-response","trial_index":118,"time_elapsed":405847,"internal_node_id":"0.0-4.0-1.55","subject_id":"5f69e356d68b93020e622bf2","study_id":"6197b3f67c2b5cd3b6d9596a","session_id":"619bef86e87fc3fafc834e5f","condition":"contingent","relevant_dimensions":["antennae","pattern"],"bee_group":{"antennae":"B","wings":"X","pattern":"S","legs":"X"},"bonus":1.060000000000001},{"rt":574.1999999880791,"stimulus":"bees-with-color/bee-B2DM.svg","response":1,"trial_type":"image-button-response","trial_index":119,"time_elapsed":406423,"internal_node_id":"0.0-4.0-0.56","subject_id":"5f69e356d68b93020e622bf2","study_id":"6197b3f67c2b5cd3b6d9596a","session_id":"619bef86e87fc3fafc834e5f","condition":"contingent","relevant_dimensions":["antennae","pattern"],"bee_group":{"antennae":"B","wings":"X","pattern":"S","legs":"X"},"action":"avoid","summary":"bad-avoid","bonus":1.060000000000001},{"rt":911.0999999940395,"stimulus":"\n                    <p><b>Action: <em>avoid</em></b></p>\n                    <p>This is the bee that you just saw.</p>\n                    <img src=\"bees-with-color/bee-B2DM.svg\" width=\"200\">\n                    <p><br>Your bonus pay is unchanged, and remains at $0.70.</p>\n            ","response":0,"trial_type":"html-button-response","trial_index":120,"time_elapsed":407335,"internal_node_id":"0.0-4.0-1.56","subject_id":"5f69e356d68b93020e622bf2","study_id":"6197b3f67c2b5cd3b6d9596a","session_id":"619bef86e87fc3fafc834e5f","condition":"contingent","relevant_dimensions":["antennae","pattern"],"bee_group":{"antennae":"B","wings":"X","pattern":"S","legs":"X"},"bonus":1.060000000000001},{"rt":1022.5999999940395,"stimulus":"bees-with-color/bee-B2SF.svg","response":1,"trial_type":"image-button-response","trial_index":121,"time_elapsed":408360,"internal_node_id":"0.0-4.0-0.57","subject_id":"5f69e356d68b93020e622bf2","study_id":"6197b3f67c2b5cd3b6d9596a","session_id":"619bef86e87fc3fafc834e5f","condition":"contingent","relevant_dimensions":["antennae","pattern"],"bee_group":{"antennae":"B","wings":"X","pattern":"S","legs":"X"},"action":"avoid","summary":"good-avoid","bonus":1.060000000000001},{"rt":517.5,"stimulus":"\n                    <p><b>Action: <em>avoid</em></b></p>\n                    <p>This is the bee that you just saw.</p>\n                    <img src=\"bees-with-color/bee-B2SF.svg\" width=\"200\">\n                    <p><br>Your bonus pay is unchanged, and remains at $0.70.</p>\n            ","response":0,"trial_type":"html-button-response","trial_index":122,"time_elapsed":408879,"internal_node_id":"0.0-4.0-1.57","subject_id":"5f69e356d68b93020e622bf2","study_id":"6197b3f67c2b5cd3b6d9596a","session_id":"619bef86e87fc3fafc834e5f","condition":"contingent","relevant_dimensions":["antennae","pattern"],"bee_group":{"antennae":"B","wings":"X","pattern":"S","legs":"X"},"bonus":1.060000000000001},{"rt":710.9000000059605,"stimulus":"bees-with-color/bee-A1DM.svg","response":0,"trial_type":"image-button-response","trial_index":123,"time_elapsed":409591,"internal_node_id":"0.0-4.0-0.58","subject_id":"5f69e356d68b93020e622bf2","study_id":"6197b3f67c2b5cd3b6d9596a","session_id":"619bef86e87fc3fafc834e5f","condition":"contingent","relevant_dimensions":["antennae","pattern"],"bee_group":{"antennae":"B","wings":"X","pattern":"S","legs":"X"},"action":"harvest","summary":"good-harvest","bonus":1.060000000000001},{"rt":390.2000000178814,"stimulus":"\n                    <p><b>Action: <em>harvest</em></b></p>\n                    <p>This is the bee that you just saw.</p>\n                    <img src=\"bees-with-color/bee-A1DM.svg\" width=\"200\">\n                    <p><span class=\"greenText\"><b>Successful harvest!</b></span><br>Your pay has increased by $0.02. Your bonus pay is now $0.72.</p>\n            ","response":0,"trial_type":"html-button-response","trial_index":124,"time_elapsed":409983,"internal_node_id":"0.0-4.0-1.58","subject_id":"5f69e356d68b93020e622bf2","study_id":"6197b3f67c2b5cd3b6d9596a","session_id":"619bef86e87fc3fafc834e5f","condition":"contingent","relevant_dimensions":["antennae","pattern"],"bee_group":{"antennae":"B","wings":"X","pattern":"S","legs":"X"},"bonus":1.060000000000001},{"rt":541.9000000059605,"stimulus":"bees-with-color/bee-B2DF.svg","response":0,"trial_type":"image-button-response","trial_index":125,"time_elapsed":410527,"internal_node_id":"0.0-4.0-0.59","subject_id":"5f69e356d68b93020e622bf2","study_id":"6197b3f67c2b5cd3b6d9596a","session_id":"619bef86e87fc3fafc834e5f","condition":"contingent","relevant_dimensions":["antennae","pattern"],"bee_group":{"antennae":"B","wings":"X","pattern":"S","legs":"X"},"action":"harvest","summary":"good-harvest","bonus":1.060000000000001},{"rt":350.5,"stimulus":"\n                    <p><b>Action: <em>harvest</em></b></p>\n                    <p>This is the bee that you just saw.</p>\n                    <img src=\"bees-with-color/bee-B2DF.svg\" width=\"200\">\n                    <p><span class=\"greenText\"><b>Successful harvest!</b></span><br>Your pay has increased by $0.02. Your bonus pay is now $0.74.</p>\n            ","response":0,"trial_type":"html-button-response","trial_index":126,"time_elapsed":410879,"internal_node_id":"0.0-4.0-1.59","subject_id":"5f69e356d68b93020e622bf2","study_id":"6197b3f67c2b5cd3b6d9596a","session_id":"619bef86e87fc3fafc834e5f","condition":"contingent","relevant_dimensions":["antennae","pattern"],"bee_group":{"antennae":"B","wings":"X","pattern":"S","legs":"X"},"bonus":1.060000000000001},{"rt":726.5,"stimulus":"bees-with-color/bee-B2SM.svg","response":1,"trial_type":"image-button-response","trial_index":127,"time_elapsed":411607,"internal_node_id":"0.0-4.0-0.60","subject_id":"5f69e356d68b93020e622bf2","study_id":"6197b3f67c2b5cd3b6d9596a","session_id":"619bef86e87fc3fafc834e5f","condition":"contingent","relevant_dimensions":["antennae","pattern"],"bee_group":{"antennae":"B","wings":"X","pattern":"S","legs":"X"},"action":"avoid","summary":"good-avoid","bonus":1.060000000000001},{"rt":390.19999998807907,"stimulus":"\n                    <p><b>Action: <em>avoid</em></b></p>\n                    <p>This is the bee that you just saw.</p>\n                    <img src=\"bees-with-color/bee-B2SM.svg\" width=\"200\">\n                    <p><br>Your bonus pay is unchanged, and remains at $0.74.</p>\n            ","response":0,"trial_type":"html-button-response","trial_index":128,"time_elapsed":411999,"internal_node_id":"0.0-4.0-1.60","subject_id":"5f69e356d68b93020e622bf2","study_id":"6197b3f67c2b5cd3b6d9596a","session_id":"619bef86e87fc3fafc834e5f","condition":"contingent","relevant_dimensions":["antennae","pattern"],"bee_group":{"antennae":"B","wings":"X","pattern":"S","legs":"X"},"bonus":1.060000000000001},{"rt":3095,"stimulus":"bees-with-color/bee-A1SF.svg","response":1,"trial_type":"image-button-response","trial_index":129,"time_elapsed":415096,"internal_node_id":"0.0-4.0-0.61","subject_id":"5f69e356d68b93020e622bf2","study_id":"6197b3f67c2b5cd3b6d9596a","session_id":"619bef86e87fc3fafc834e5f","condition":"contingent","relevant_dimensions":["antennae","pattern"],"bee_group":{"antennae":"B","wings":"X","pattern":"S","legs":"X"},"action":"avoid","summary":"bad-avoid","bonus":1.060000000000001},{"rt":503.69999998807907,"stimulus":"\n                    <p><b>Action: <em>avoid</em></b></p>\n                    <p>This is the bee that you just saw.</p>\n                    <img src=\"bees-with-color/bee-A1SF.svg\" width=\"200\">\n                    <p><br>Your bonus pay is unchanged, and remains at $0.74.</p>\n            ","response":0,"trial_type":"html-button-response","trial_index":130,"time_elapsed":415607,"internal_node_id":"0.0-4.0-1.61","subject_id":"5f69e356d68b93020e622bf2","study_id":"6197b3f67c2b5cd3b6d9596a","session_id":"619bef86e87fc3fafc834e5f","condition":"contingent","relevant_dimensions":["antennae","pattern"],"bee_group":{"antennae":"B","wings":"X","pattern":"S","legs":"X"},"bonus":1.060000000000001},{"rt":612,"stimulus":"bees-with-color/bee-A1SM.svg","response":1,"trial_type":"image-button-response","trial_index":131,"time_elapsed":416223,"internal_node_id":"0.0-4.0-0.62","subject_id":"5f69e356d68b93020e622bf2","study_id":"6197b3f67c2b5cd3b6d9596a","session_id":"619bef86e87fc3fafc834e5f","condition":"contingent","relevant_dimensions":["antennae","pattern"],"bee_group":{"antennae":"B","wings":"X","pattern":"S","legs":"X"},"action":"avoid","summary":"bad-avoid","bonus":1.060000000000001},{"rt":382.69999998807907,"stimulus":"\n                    <p><b>Action: <em>avoid</em></b></p>\n                    <p>This is the bee that you just saw.</p>\n                    <img src=\"bees-with-color/bee-A1SM.svg\" width=\"200\">\n                    <p><br>Your bonus pay is unchanged, and remains at $0.74.</p>\n            ","response":0,"trial_type":"html-button-response","trial_index":132,"time_elapsed":416607,"internal_node_id":"0.0-4.0-1.62","subject_id":"5f69e356d68b93020e622bf2","study_id":"6197b3f67c2b5cd3b6d9596a","session_id":"619bef86e87fc3fafc834e5f","condition":"contingent","relevant_dimensions":["antennae","pattern"],"bee_group":{"antennae":"B","wings":"X","pattern":"S","legs":"X"},"bonus":1.060000000000001},{"rt":1861.199999988079,"stimulus":"bees-with-color/bee-A2SM.svg","response":1,"trial_type":"image-button-response","trial_index":133,"time_elapsed":418471,"internal_node_id":"0.0-4.0-0.63","subject_id":"5f69e356d68b93020e622bf2","study_id":"6197b3f67c2b5cd3b6d9596a","session_id":"619bef86e87fc3fafc834e5f","condition":"contingent","relevant_dimensions":["antennae","pattern"],"bee_group":{"antennae":"B","wings":"X","pattern":"S","legs":"X"},"action":"avoid","summary":"bad-avoid","bonus":1.060000000000001},{"rt":454.59999999403954,"stimulus":"\n                    <p><b>Action: <em>avoid</em></b></p>\n                    <p>This is the bee that you just saw.</p>\n                    <img src=\"bees-with-color/bee-A2SM.svg\" width=\"200\">\n                    <p><br>Your bonus pay is unchanged, and remains at $0.74.</p>\n            ","response":0,"trial_type":"html-button-response","trial_index":134,"time_elapsed":418927,"internal_node_id":"0.0-4.0-1.63","subject_id":"5f69e356d68b93020e622bf2","study_id":"6197b3f67c2b5cd3b6d9596a","session_id":"619bef86e87fc3fafc834e5f","condition":"contingent","relevant_dimensions":["antennae","pattern"],"bee_group":{"antennae":"B","wings":"X","pattern":"S","legs":"X"},"bonus":1.060000000000001},{"rt":10243.699999988079,"stimulus":"You have completed the first part of this experiment.<br><br>You will now begin a shorter second part, in which you will receive no feedback.<br>The same rules regarding bonus pay apply.<br><br>Press any key to begin.","response":"f","trial_type":"html-keyboard-response","trial_index":135,"time_elapsed":429171,"internal_node_id":"0.0-5.0","subject_id":"5f69e356d68b93020e622bf2","study_id":"6197b3f67c2b5cd3b6d9596a","session_id":"619bef86e87fc3fafc834e5f","condition":"contingent","relevant_dimensions":["antennae","pattern"],"bee_group":{"antennae":"B","wings":"X","pattern":"S","legs":"X"},"bonus":1.060000000000001},{"rt":5829.300000011921,"stimulus":"bees-with-color/bee-B2DM.svg","response":0,"trial_type":"image-button-response","trial_index":136,"time_elapsed":435335,"internal_node_id":"0.0-6.0-0.0","subject_id":"5f69e356d68b93020e622bf2","study_id":"6197b3f67c2b5cd3b6d9596a","session_id":"619bef86e87fc3fafc834e5f","condition":"contingent","relevant_dimensions":["antennae","pattern"],"bee_group":{"antennae":"B","wings":"X","pattern":"S","legs":"X"},"bonus":1.060000000000001},{"rt":2493.0999999940395,"stimulus":"bees-with-color/bee-A1SM.svg","response":1,"trial_type":"image-button-response","trial_index":137,"time_elapsed":437831,"internal_node_id":"0.0-6.0-0.1","subject_id":"5f69e356d68b93020e622bf2","study_id":"6197b3f67c2b5cd3b6d9596a","session_id":"619bef86e87fc3fafc834e5f","condition":"contingent","relevant_dimensions":["antennae","pattern"],"bee_group":{"antennae":"B","wings":"X","pattern":"S","legs":"X"},"bonus":1.060000000000001},{"rt":757.3000000119209,"stimulus":"bees-with-color/bee-B1SF.svg","response":1,"trial_type":"image-button-response","trial_index":138,"time_elapsed":438591,"internal_node_id":"0.0-6.0-0.2","subject_id":"5f69e356d68b93020e622bf2","study_id":"6197b3f67c2b5cd3b6d9596a","session_id":"619bef86e87fc3fafc834e5f","condition":"contingent","relevant_dimensions":["antennae","pattern"],"bee_group":{"antennae":"B","wings":"X","pattern":"S","legs":"X"},"bonus":1.060000000000001},{"rt":790.5999999940395,"stimulus":"bees-with-color/bee-A2SM.svg","response":1,"trial_type":"image-button-response","trial_index":139,"time_elapsed":439383,"internal_node_id":"0.0-6.0-0.3","subject_id":"5f69e356d68b93020e622bf2","study_id":"6197b3f67c2b5cd3b6d9596a","session_id":"619bef86e87fc3fafc834e5f","condition":"contingent","relevant_dimensions":["antennae","pattern"],"bee_group":{"antennae":"B","wings":"X","pattern":"S","legs":"X"},"bonus":1.060000000000001},{"rt":558.1999999880791,"stimulus":"bees-with-color/bee-B2DF.svg","response":0,"trial_type":"image-button-response","trial_index":140,"time_elapsed":439943,"internal_node_id":"0.0-6.0-0.4","subject_id":"5f69e356d68b93020e622bf2","study_id":"6197b3f67c2b5cd3b6d9596a","session_id":"619bef86e87fc3fafc834e5f","condition":"contingent","relevant_dimensions":["antennae","pattern"],"bee_group":{"antennae":"B","wings":"X","pattern":"S","legs":"X"},"bonus":1.060000000000001},{"rt":534.1999999880791,"stimulus":"bees-with-color/bee-A2SF.svg","response":1,"trial_type":"image-button-response","trial_index":141,"time_elapsed":440479,"internal_node_id":"0.0-6.0-0.5","subject_id":"5f69e356d68b93020e622bf2","study_id":"6197b3f67c2b5cd3b6d9596a","session_id":"619bef86e87fc3fafc834e5f","condition":"contingent","relevant_dimensions":["antennae","pattern"],"bee_group":{"antennae":"B","wings":"X","pattern":"S","legs":"X"},"bonus":1.060000000000001},{"rt":510.30000001192093,"stimulus":"bees-with-color/bee-A1SF.svg","response":1,"trial_type":"image-button-response","trial_index":142,"time_elapsed":440992,"internal_node_id":"0.0-6.0-0.6","subject_id":"5f69e356d68b93020e622bf2","study_id":"6197b3f67c2b5cd3b6d9596a","session_id":"619bef86e87fc3fafc834e5f","condition":"contingent","relevant_dimensions":["antennae","pattern"],"bee_group":{"antennae":"B","wings":"X","pattern":"S","legs":"X"},"bonus":1.060000000000001},{"rt":477.40000000596046,"stimulus":"bees-with-color/bee-B1SM.svg","response":1,"trial_type":"image-button-response","trial_index":143,"time_elapsed":441471,"internal_node_id":"0.0-6.0-0.7","subject_id":"5f69e356d68b93020e622bf2","study_id":"6197b3f67c2b5cd3b6d9596a","session_id":"619bef86e87fc3fafc834e5f","condition":"contingent","relevant_dimensions":["antennae","pattern"],"bee_group":{"antennae":"B","wings":"X","pattern":"S","legs":"X"},"bonus":1.060000000000001},{"rt":702.9000000059605,"stimulus":"bees-with-color/bee-A1DM.svg","response":0,"trial_type":"image-button-response","trial_index":144,"time_elapsed":442175,"internal_node_id":"0.0-6.0-0.8","subject_id":"5f69e356d68b93020e622bf2","study_id":"6197b3f67c2b5cd3b6d9596a","session_id":"619bef86e87fc3fafc834e5f","condition":"contingent","relevant_dimensions":["antennae","pattern"],"bee_group":{"antennae":"B","wings":"X","pattern":"S","legs":"X"},"bonus":1.060000000000001},{"rt":613.9000000059605,"stimulus":"bees-with-color/bee-B2SM.svg","response":1,"trial_type":"image-button-response","trial_index":145,"time_elapsed":442791,"internal_node_id":"0.0-6.0-0.9","subject_id":"5f69e356d68b93020e622bf2","study_id":"6197b3f67c2b5cd3b6d9596a","session_id":"619bef86e87fc3fafc834e5f","condition":"contingent","relevant_dimensions":["antennae","pattern"],"bee_group":{"antennae":"B","wings":"X","pattern":"S","legs":"X"},"bonus":1.060000000000001},{"rt":613.5,"stimulus":"bees-with-color/bee-A2DM.svg","response":0,"trial_type":"image-button-response","trial_index":146,"time_elapsed":443407,"internal_node_id":"0.0-6.0-0.10","subject_id":"5f69e356d68b93020e622bf2","study_id":"6197b3f67c2b5cd3b6d9596a","session_id":"619bef86e87fc3fafc834e5f","condition":"contingent","relevant_dimensions":["antennae","pattern"],"bee_group":{"antennae":"B","wings":"X","pattern":"S","legs":"X"},"bonus":1.060000000000001},{"rt":732.1999999880791,"stimulus":"bees-with-color/bee-A2DF.svg","response":0,"trial_type":"image-button-response","trial_index":147,"time_elapsed":444143,"internal_node_id":"0.0-6.0-0.11","subject_id":"5f69e356d68b93020e622bf2","study_id":"6197b3f67c2b5cd3b6d9596a","session_id":"619bef86e87fc3fafc834e5f","condition":"contingent","relevant_dimensions":["antennae","pattern"],"bee_group":{"antennae":"B","wings":"X","pattern":"S","legs":"X"},"bonus":1.060000000000001},{"rt":694,"stimulus":"bees-with-color/bee-B1DM.svg","response":0,"trial_type":"image-button-response","trial_index":148,"time_elapsed":444839,"internal_node_id":"0.0-6.0-0.12","subject_id":"5f69e356d68b93020e622bf2","study_id":"6197b3f67c2b5cd3b6d9596a","session_id":"619bef86e87fc3fafc834e5f","condition":"contingent","relevant_dimensions":["antennae","pattern"],"bee_group":{"antennae":"B","wings":"X","pattern":"S","legs":"X"},"bonus":1.060000000000001},{"rt":622,"stimulus":"bees-with-color/bee-B1DF.svg","response":0,"trial_type":"image-button-response","trial_index":149,"time_elapsed":445463,"internal_node_id":"0.0-6.0-0.13","subject_id":"5f69e356d68b93020e622bf2","study_id":"6197b3f67c2b5cd3b6d9596a","session_id":"619bef86e87fc3fafc834e5f","condition":"contingent","relevant_dimensions":["antennae","pattern"],"bee_group":{"antennae":"B","wings":"X","pattern":"S","legs":"X"},"bonus":1.060000000000001},{"rt":1062,"stimulus":"bees-with-color/bee-B2SF.svg","response":1,"trial_type":"image-button-response","trial_index":150,"time_elapsed":446527,"internal_node_id":"0.0-6.0-0.14","subject_id":"5f69e356d68b93020e622bf2","study_id":"6197b3f67c2b5cd3b6d9596a","session_id":"619bef86e87fc3fafc834e5f","condition":"contingent","relevant_dimensions":["antennae","pattern"],"bee_group":{"antennae":"B","wings":"X","pattern":"S","legs":"X"},"bonus":1.060000000000001},{"rt":582,"stimulus":"bees-with-color/bee-A1DF.svg","response":0,"trial_type":"image-button-response","trial_index":151,"time_elapsed":447111,"internal_node_id":"0.0-6.0-0.15","subject_id":"5f69e356d68b93020e622bf2","study_id":"6197b3f67c2b5cd3b6d9596a","session_id":"619bef86e87fc3fafc834e5f","condition":"contingent","relevant_dimensions":["antennae","pattern"],"bee_group":{"antennae":"B","wings":"X","pattern":"S","legs":"X"},"bonus":1.060000000000001},{"rt":854.5999999940395,"stimulus":"bees-with-color/bee-B2DM.svg","response":0,"trial_type":"image-button-response","trial_index":152,"time_elapsed":447967,"internal_node_id":"0.0-6.0-0.16","subject_id":"5f69e356d68b93020e622bf2","study_id":"6197b3f67c2b5cd3b6d9596a","session_id":"619bef86e87fc3fafc834e5f","condition":"contingent","relevant_dimensions":["antennae","pattern"],"bee_group":{"antennae":"B","wings":"X","pattern":"S","legs":"X"},"bonus":1.060000000000001},{"rt":582.5,"stimulus":"bees-with-color/bee-B2DF.svg","response":0,"trial_type":"image-button-response","trial_index":153,"time_elapsed":448551,"internal_node_id":"0.0-6.0-0.17","subject_id":"5f69e356d68b93020e622bf2","study_id":"6197b3f67c2b5cd3b6d9596a","session_id":"619bef86e87fc3fafc834e5f","condition":"contingent","relevant_dimensions":["antennae","pattern"],"bee_group":{"antennae":"B","wings":"X","pattern":"S","legs":"X"},"bonus":1.060000000000001},{"rt":558.3000000119209,"stimulus":"bees-with-color/bee-A2DF.svg","response":0,"trial_type":"image-button-response","trial_index":154,"time_elapsed":449111,"internal_node_id":"0.0-6.0-0.18","subject_id":"5f69e356d68b93020e622bf2","study_id":"6197b3f67c2b5cd3b6d9596a","session_id":"619bef86e87fc3fafc834e5f","condition":"contingent","relevant_dimensions":["antennae","pattern"],"bee_group":{"antennae":"B","wings":"X","pattern":"S","legs":"X"},"bonus":1.060000000000001},{"rt":1654.9000000059605,"stimulus":"bees-with-color/bee-B1DM.svg","response":0,"trial_type":"image-button-response","trial_index":155,"time_elapsed":450767,"internal_node_id":"0.0-6.0-0.19","subject_id":"5f69e356d68b93020e622bf2","study_id":"6197b3f67c2b5cd3b6d9596a","session_id":"619bef86e87fc3fafc834e5f","condition":"contingent","relevant_dimensions":["antennae","pattern"],"bee_group":{"antennae":"B","wings":"X","pattern":"S","legs":"X"},"bonus":1.060000000000001},{"rt":478.10000002384186,"stimulus":"bees-with-color/bee-A1DM.svg","response":0,"trial_type":"image-button-response","trial_index":156,"time_elapsed":451247,"internal_node_id":"0.0-6.0-0.20","subject_id":"5f69e356d68b93020e622bf2","study_id":"6197b3f67c2b5cd3b6d9596a","session_id":"619bef86e87fc3fafc834e5f","condition":"contingent","relevant_dimensions":["antennae","pattern"],"bee_group":{"antennae":"B","wings":"X","pattern":"S","legs":"X"},"bonus":1.060000000000001},{"rt":1046.2000000178814,"stimulus":"bees-with-color/bee-B2SM.svg","response":1,"trial_type":"image-button-response","trial_index":157,"time_elapsed":452295,"internal_node_id":"0.0-6.0-0.21","subject_id":"5f69e356d68b93020e622bf2","study_id":"6197b3f67c2b5cd3b6d9596a","session_id":"619bef86e87fc3fafc834e5f","condition":"contingent","relevant_dimensions":["antennae","pattern"],"bee_group":{"antennae":"B","wings":"X","pattern":"S","legs":"X"},"bonus":1.060000000000001},{"rt":390.90000000596046,"stimulus":"bees-with-color/bee-A2SM.svg","response":1,"trial_type":"image-button-response","trial_index":158,"time_elapsed":452687,"internal_node_id":"0.0-6.0-0.22","subject_id":"5f69e356d68b93020e622bf2","study_id":"6197b3f67c2b5cd3b6d9596a","session_id":"619bef86e87fc3fafc834e5f","condition":"contingent","relevant_dimensions":["antennae","pattern"],"bee_group":{"antennae":"B","wings":"X","pattern":"S","legs":"X"},"bonus":1.060000000000001},{"rt":550.6000000238419,"stimulus":"bees-with-color/bee-B1SF.svg","response":1,"trial_type":"image-button-response","trial_index":159,"time_elapsed":453239,"internal_node_id":"0.0-6.0-0.23","subject_id":"5f69e356d68b93020e622bf2","study_id":"6197b3f67c2b5cd3b6d9596a","session_id":"619bef86e87fc3fafc834e5f","condition":"contingent","relevant_dimensions":["antennae","pattern"],"bee_group":{"antennae":"B","wings":"X","pattern":"S","legs":"X"},"bonus":1.060000000000001},{"rt":790.7999999821186,"stimulus":"bees-with-color/bee-B1DF.svg","response":0,"trial_type":"image-button-response","trial_index":160,"time_elapsed":454031,"internal_node_id":"0.0-6.0-0.24","subject_id":"5f69e356d68b93020e622bf2","study_id":"6197b3f67c2b5cd3b6d9596a","session_id":"619bef86e87fc3fafc834e5f","condition":"contingent","relevant_dimensions":["antennae","pattern"],"bee_group":{"antennae":"B","wings":"X","pattern":"S","legs":"X"},"bonus":1.060000000000001},{"rt":710.4000000059605,"stimulus":"bees-with-color/bee-A1SF.svg","response":1,"trial_type":"image-button-response","trial_index":161,"time_elapsed":454744,"internal_node_id":"0.0-6.0-0.25","subject_id":"5f69e356d68b93020e622bf2","study_id":"6197b3f67c2b5cd3b6d9596a","session_id":"619bef86e87fc3fafc834e5f","condition":"contingent","relevant_dimensions":["antennae","pattern"],"bee_group":{"antennae":"B","wings":"X","pattern":"S","legs":"X"},"bonus":1.060000000000001},{"rt":485.80000001192093,"stimulus":"bees-with-color/bee-A1DF.svg","response":0,"trial_type":"image-button-response","trial_index":162,"time_elapsed":455231,"internal_node_id":"0.0-6.0-0.26","subject_id":"5f69e356d68b93020e622bf2","study_id":"6197b3f67c2b5cd3b6d9596a","session_id":"619bef86e87fc3fafc834e5f","condition":"contingent","relevant_dimensions":["antennae","pattern"],"bee_group":{"antennae":"B","wings":"X","pattern":"S","legs":"X"},"bonus":1.060000000000001},{"rt":501.69999998807907,"stimulus":"bees-with-color/bee-A1SM.svg","response":1,"trial_type":"image-button-response","trial_index":163,"time_elapsed":455735,"internal_node_id":"0.0-6.0-0.27","subject_id":"5f69e356d68b93020e622bf2","study_id":"6197b3f67c2b5cd3b6d9596a","session_id":"619bef86e87fc3fafc834e5f","condition":"contingent","relevant_dimensions":["antennae","pattern"],"bee_group":{"antennae":"B",