[{"success":true,"trial_type":"fullscreen","trial_index":0,"time_elapsed":4117,"internal_node_id":"0.0-0.0","subject_id":"6146326710af7cfea335bce3","study_id":"60edd13110225f80f9f3709b","session_id":"6196c1f678eba4aac5ef9750","condition":"contingent","relevant_dimensions":["pattern","legs"],"bee_group":{"antennae":"X","wings":"X","pattern":"D","legs":"F"},"bonus":1.4000000000000008},{"success":true,"timeout":false,"failed_images":[],"failed_audio":[],"failed_video":[],"trial_type":"preload","trial_index":1,"time_elapsed":5639,"internal_node_id":"0.0-1.0","subject_id":"6146326710af7cfea335bce3","study_id":"60edd13110225f80f9f3709b","session_id":"6196c1f678eba4aac5ef9750","condition":"contingent","relevant_dimensions":["pattern","legs"],"bee_group":{"antennae":"X","wings":"X","pattern":"D","legs":"F"},"bonus":1.4000000000000008},{"rt":3109.7000000001863,"stimulus":"Welcome! Press any key to begin.","response":" ","trial_type":"html-keyboard-response","trial_index":2,"time_elapsed":8749,"internal_node_id":"0.0-2.0","subject_id":"6146326710af7cfea335bce3","study_id":"60edd13110225f80f9f3709b","session_id":"6196c1f678eba4aac5ef9750","condition":"contingent","relevant_dimensions":["pattern","legs"],"bee_group":{"antennae":"X","wings":"X","pattern":"D","legs":"F"},"bonus":1.4000000000000008},{"view_history":[{"page_index":0,"viewing_time":7064.9000000003725},{"page_index":1,"viewing_time":13765.799999999814},{"page_index":2,"viewing_time":15091.799999999814},{"page_index":3,"viewing_time":14472},{"page_index":4,"viewing_time":8513.200000000186},{"page_index":5,"viewing_time":16578.900000000373},{"page_index":6,"viewing_time":12233.899999999441},{"page_index":7,"viewing_time":8221.299999999814},{"page_index":8,"viewing_time":8281.800000000745},{"page_index":9,"viewing_time":5803},{"page_index":10,"viewing_time":3742.0999999996275},{"page_index":11,"viewing_time":12113.799999999814},{"page_index":12,"viewing_time":11181.100000000559},{"page_index":13,"viewing_time":1113.0999999996275},{"page_index":14,"viewing_time":3363}],"rt":141540.40000000037,"trial_type":"instructions","trial_index":3,"time_elapsed":150290,"internal_node_id":"0.0-3.0-0.0","subject_id":"6146326710af7cfea335bce3","study_id":"60edd13110225f80f9f3709b","session_id":"6196c1f678eba4aac5ef9750","condition":"contingent","relevant_dimensions":["pattern","legs"],"bee_group":{"antennae":"X","wings":"X","pattern":"D","legs":"F"},"bonus":1.4000000000000008},{"rt":15056.099999999627,"response":{"Q0":["Two or six legs","Stripes or spots on body","Single or double wings","Antennae or no antennae"]},"question_order":[0],"trial_type":"survey-multi-select","trial_index":4,"time_elapsed":165350,"internal_node_id":"0.0-3.0-1.0","subject_id":"6146326710af7cfea335bce3","study_id":"60edd13110225f80f9f3709b","session_id":"6196c1f678eba4aac5ef9750","condition":"contingent","relevant_dimensions":["pattern","legs"],"bee_group":{"antennae":"X","wings":"X","pattern":"D","legs":"F"},"correct":true,"bonus":1.4000000000000008},{"rt":32149.60000000056,"response":{"Q1":"No.","Q2":"Based on the four features of the bee.","Q3":"You do not learn if it was friendly or dangerous, and do not alter your bonus."},"question_order":[0,1,2],"trial_type":"survey-multi-choice","trial_index":5,"time_elapsed":197503,"internal_node_id":"0.0-3.0-2.0","subject_id":"6146326710af7cfea335bce3","study_id":"60edd13110225f80f9f3709b","session_id":"6196c1f678eba4aac5ef9750","condition":"contingent","relevant_dimensions":["pattern","legs"],"bee_group":{"antennae":"X","wings":"X","pattern":"D","legs":"F"},"correct":true,"bonus":1.4000000000000008},{"rt":4460.299999999814,"stimulus":"<p>Congrats, you got everything right<br>When you're ready, click the button below to continue to the experiment.</p>","response":0,"trial_type":"html-button-response","trial_index":6,"time_elapsed":201967,"internal_node_id":"0.0-3.0-3.0","subject_id":"6146326710af7cfea335bce3","study_id":"60edd13110225f80f9f3709b","session_id":"6196c1f678eba4aac5ef9750","condition":"contingent","relevant_dimensions":["pattern","legs"],"bee_group":{"antennae":"X","wings":"X","pattern":"D","legs":"F"},"bonus":1.4000000000000008},{"rt":5280,"stimulus":"bees-with-color/bee-B2SF.svg","response":0,"trial_type":"image-button-response","trial_index":7,"time_elapsed":207249,"internal_node_id":"0.0-4.0-0.0","subject_id":"6146326710af7cfea335bce3","study_id":"60edd13110225f80f9f3709b","session_id":"6196c1f678eba4aac5ef9750","condition":"contingent","relevant_dimensions":["pattern","legs"],"bee_group":{"antennae":"X","wings":"X","pattern":"D","legs":"F"},"action":"harvest","summary":"good-harvest","bonus":1.4000000000000008},{"rt":6572.0999999996275,"stimulus":"\n                    <p><b>Action: <em>harvest</em></b></p>\n                    <p>This is the bee that you just saw.</p>\n                    <img src=\"bees-with-color/bee-B2SF.svg\" width=\"200\">\n                    <p><span class=\"greenText\"><b>Successful harvest!</b></span><br>Your pay has increased by $0.02. Your bonus pay is now $0.56.</p>\n            ","response":0,"trial_type":"html-button-response","trial_index":8,"time_elapsed":213823,"internal_node_id":"0.0-4.0-1.0","subject_id":"6146326710af7cfea335bce3","study_id":"60edd13110225f80f9f3709b","session_id":"6196c1f678eba4aac5ef9750","condition":"contingent","relevant_dimensions":["pattern","legs"],"bee_group":{"antennae":"X","wings":"X","pattern":"D","legs":"F"},"bonus":1.4000000000000008},{"rt":4794.5,"stimulus":"bees-with-color/bee-A2DM.svg","response":1,"trial_type":"image-button-response","trial_index":9,"time_elapsed":218619,"internal_node_id":"0.0-4.0-0.1","subject_id":"6146326710af7cfea335bce3","study_id":"60edd13110225f80f9f3709b","session_id":"6196c1f678eba4aac5ef9750","condition":"contingent","relevant_dimensions":["pattern","legs"],"bee_group":{"antennae":"X","wings":"X","pattern":"D","legs":"F"},"action":"avoid","summary":"bad-avoid","bonus":1.4000000000000008},{"rt":3673.800000000745,"stimulus":"\n                    <p><b>Action: <em>avoid</em></b></p>\n                    <p>This is the bee that you just saw.</p>\n                    <img src=\"bees-with-color/bee-A2DM.svg\" width=\"200\">\n                    <p><br>Your bonus pay is unchanged, and remains at $0.56.</p>\n            ","response":0,"trial_type":"html-button-response","trial_index":10,"time_elapsed":222293,"internal_node_id":"0.0-4.0-1.1","subject_id":"6146326710af7cfea335bce3","study_id":"60edd13110225f80f9f3709b","session_id":"6196c1f678eba4aac5ef9750","condition":"contingent","relevant_dimensions":["pattern","legs"],"bee_group":{"antennae":"X","wings":"X","pattern":"D","legs":"F"},"bonus":1.4000000000000008},{"rt":4119.5,"stimulus":"bees-with-color/bee-A2DF.svg","response":0,"trial_type":"image-button-response","trial_index":11,"time_elapsed":226414,"internal_node_id":"0.0-4.0-0.2","subject_id":"6146326710af7cfea335bce3","study_id":"60edd13110225f80f9f3709b","session_id":"6196c1f678eba4aac5ef9750","condition":"contingent","relevant_dimensions":["pattern","legs"],"bee_group":{"antennae":"X","wings":"X","pattern":"D","legs":"F"},"action":"harvest","summary":"bad-harvest","bonus":1.4000000000000008},{"rt":5923.800000000745,"stimulus":"\n                    <p><b>Action: <em>harvest</em></b></p>\n                    <p>This is the bee that you just saw.</p>\n                    <img src=\"bees-with-color/bee-A2DF.svg\" width=\"200\">\n                    <p><span class=\"redText\">Bad choice, the bee was angry.</span><br><b>You have been stung!</b><br>Your pay has been decreased by $0.10. Your bonus pay is now $0.46.</p>\n            ","response":0,"trial_type":"html-button-response","trial_index":12,"time_elapsed":232340,"internal_node_id":"0.0-4.0-1.2","subject_id":"6146326710af7cfea335bce3","study_id":"60edd13110225f80f9f3709b","session_id":"6196c1f678eba4aac5ef9750","condition":"contingent","relevant_dimensions":["pattern","legs"],"bee_group":{"antennae":"X","wings":"X","pattern":"D","legs":"F"},"bonus":1.4000000000000008},{"rt":1934.6000000005588,"stimulus":"bees-with-color/bee-A1SF.svg","response":0,"trial_type":"image-button-response","trial_index":13,"time_elapsed":234276,"internal_node_id":"0.0-4.0-0.3","subject_id":"6146326710af7cfea335bce3","study_id":"60edd13110225f80f9f3709b","session_id":"6196c1f678eba4aac5ef9750","condition":"contingent","relevant_dimensions":["pattern","legs"],"bee_group":{"antennae":"X","wings":"X","pattern":"D","legs":"F"},"action":"harvest","summary":"good-harvest","bonus":1.4000000000000008},{"rt":1644.2999999998137,"stimulus":"\n                    <p><b>Action: <em>harvest</em></b></p>\n                    <p>This is the bee that you just saw.</p>\n                    <img src=\"bees-with-color/bee-A1SF.svg\" width=\"200\">\n                    <p><span class=\"greenText\"><b>Successful harvest!</b></span><br>Your pay has increased by $0.02. Your bonus pay is now $0.48.</p>\n            ","response":0,"trial_type":"html-button-response","trial_index":14,"time_elapsed":235921,"internal_node_id":"0.0-4.0-1.3","subject_id":"6146326710af7cfea335bce3","study_id":"60edd13110225f80f9f3709b","session_id":"6196c1f678eba4aac5ef9750","condition":"contingent","relevant_dimensions":["pattern","legs"],"bee_group":{"antennae":"X","wings":"X","pattern":"D","legs":"F"},"bonus":1.4000000000000008},{"rt":2319.2000000001863,"stimulus":"bees-with-color/bee-B2DM.svg","response":1,"trial_type":"image-button-response","trial_index":15,"time_elapsed":238242,"internal_node_id":"0.0-4.0-0.4","subject_id":"6146326710af7cfea335bce3","study_id":"60edd13110225f80f9f3709b","session_id":"6196c1f678eba4aac5ef9750","condition":"contingent","relevant_dimensions":["pattern","legs"],"bee_group":{"antennae":"X","wings":"X","pattern":"D","legs":"F"},"action":"avoid","summary":"bad-avoid","bonus":1.4000000000000008},{"rt":1712.7000000001863,"stimulus":"\n                    <p><b>Action: <em>avoid</em></b></p>\n                    <p>This is the bee that you just saw.</p>\n                    <img src=\"bees-with-color/bee-B2DM.svg\" width=\"200\">\n                    <p><br>Your bonus pay is unchanged, and remains at $0.48.</p>\n            ","response":0,"trial_type":"html-button-response","trial_index":16,"time_elapsed":239955,"internal_node_id":"0.0-4.0-1.4","subject_id":"6146326710af7cfea335bce3","study_id":"60edd13110225f80f9f3709b","session_id":"6196c1f678eba4aac5ef9750","condition":"contingent","relevant_dimensions":["pattern","legs"],"bee_group":{"antennae":"X","wings":"X","pattern":"D","legs":"F"},"bonus":1.4000000000000008},{"rt":2110.7000000001863,"stimulus":"bees-with-color/bee-A1DF.svg","response":1,"trial_type":"image-button-response","trial_index":17,"time_elapsed":242067,"internal_node_id":"0.0-4.0-0.5","subject_id":"6146326710af7cfea335bce3","study_id":"60edd13110225f80f9f3709b","session_id":"6196c1f678eba4aac5ef9750","condition":"contingent","relevant_dimensions":["pattern","legs"],"bee_group":{"antennae":"X","wings":"X","pattern":"D","legs":"F"},"action":"avoid","summary":"good-avoid","bonus":1.4000000000000008},{"rt":952,"stimulus":"\n                    <p><b>Action: <em>avoid</em></b></p>\n                    <p>This is the bee that you just saw.</p>\n                    <img src=\"bees-with-color/bee-A1DF.svg\" width=\"200\">\n                    <p><br>Your bonus pay is unchanged, and remains at $0.48.</p>\n            ","response":0,"trial_type":"html-button-response","trial_index":18,"time_elapsed":243021,"internal_node_id":"0.0-4.0-1.5","subject_id":"6146326710af7cfea335bce3","study_id":"60edd13110225f80f9f3709b","session_id":"6196c1f678eba4aac5ef9750","condition":"contingent","relevant_dimensions":["pattern","legs"],"bee_group":{"antennae":"X","wings":"X","pattern":"D","legs":"F"},"bonus":1.4000000000000008},{"rt":1517.4000000003725,"stimulus":"bees-with-color/bee-A1SM.svg","response":0,"trial_type":"image-button-response","trial_index":19,"time_elapsed":244540,"internal_node_id":"0.0-4.0-0.6","subject_id":"6146326710af7cfea335bce3","study_id":"60edd13110225f80f9f3709b","session_id":"6196c1f678eba4aac5ef9750","condition":"contingent","relevant_dimensions":["pattern","legs"],"bee_group":{"antennae":"X","wings":"X","pattern":"D","legs":"F"},"action":"harvest","summary":"good-harvest","bonus":1.4000000000000008},{"rt":1128,"stimulus":"\n                    <p><b>Action: <em>harvest</em></b></p>\n                    <p>This is the bee that you just saw.</p>\n                    <img src=\"bees-with-color/bee-A1SM.svg\" width=\"200\">\n                    <p><span class=\"greenText\"><b>Successful harvest!</b></span><br>Your pay has increased by $0.02. Your bonus pay is now $0.50.</p>\n            ","response":0,"trial_type":"html-button-response","trial_index":20,"time_elapsed":245668,"internal_node_id":"0.0-4.0-1.6","subject_id":"6146326710af7cfea335bce3","study_id":"60edd13110225f80f9f3709b","session_id":"6196c1f678eba4aac5ef9750","condition":"contingent","relevant_dimensions":["pattern","legs"],"bee_group":{"antennae":"X","wings":"X","pattern":"D","legs":"F"},"bonus":1.4000000000000008},{"rt":1513.7000000001863,"stimulus":"bees-with-color/bee-A2SF.svg","response":0,"trial_type":"image-button-response","trial_index":21,"time_elapsed":247183,"internal_node_id":"0.0-4.0-0.7","subject_id":"6146326710af7cfea335bce3","study_id":"60edd13110225f80f9f3709b","session_id":"6196c1f678eba4aac5ef9750","condition":"contingent","relevant_dimensions":["pattern","legs"],"bee_group":{"antennae":"X","wings":"X","pattern":"D","legs":"F"},"action":"harvest","summary":"good-harvest","bonus":1.4000000000000008},{"rt":1032.2000000001863,"stimulus":"\n                    <p><b>Action: <em>harvest</em></b></p>\n                    <p>This is the bee that you just saw.</p>\n                    <img src=\"bees-with-color/bee-A2SF.svg\" width=\"200\">\n                    <p><span class=\"greenText\"><b>Successful harvest!</b></span><br>Your pay has increased by $0.02. Your bonus pay is now $0.52.</p>\n            ","response":0,"trial_type":"html-button-response","trial_index":22,"time_elapsed":248217,"internal_node_id":"0.0-4.0-1.7","subject_id":"6146326710af7cfea335bce3","study_id":"60edd13110225f80f9f3709b","session_id":"6196c1f678eba4aac5ef9750","condition":"contingent","relevant_dimensions":["pattern","legs"],"bee_group":{"antennae":"X","wings":"X","pattern":"D","legs":"F"},"bonus":1.4000000000000008},{"rt":3458.7000000001863,"stimulus":"bees-with-color/bee-B1SF.svg","response":0,"trial_type":"image-button-response","trial_index":23,"time_elapsed":251676,"internal_node_id":"0.0-4.0-0.8","subject_id":"6146326710af7cfea335bce3","study_id":"60edd13110225f80f9f3709b","session_id":"6196c1f678eba4aac5ef9750","condition":"contingent","relevant_dimensions":["pattern","legs"],"bee_group":{"antennae":"X","wings":"X","pattern":"D","legs":"F"},"action":"harvest","summary":"good-harvest","bonus":1.4000000000000008},{"rt":891.8999999994412,"stimulus":"\n                    <p><b>Action: <em>harvest</em></b></p>\n                    <p>This is the bee that you just saw.</p>\n                    <img src=\"bees-with-color/bee-B1SF.svg\" width=\"200\">\n                    <p><span class=\"greenText\"><b>Successful harvest!</b></span><br>Your pay has increased by $0.02. Your bonus pay is now $0.54.</p>\n            ","response":0,"trial_type":"html-button-response","trial_index":24,"time_elapsed":252570,"internal_node_id":"0.0-4.0-1.8","subject_id":"6146326710af7cfea335bce3","study_id":"60edd13110225f80f9f3709b","session_id":"6196c1f678eba4aac5ef9750","condition":"contingent","relevant_dimensions":["pattern","legs"],"bee_group":{"antennae":"X","wings":"X","pattern":"D","legs":"F"},"bonus":1.4000000000000008},{"rt":1049.5,"stimulus":"bees-with-color/bee-B1DM.svg","response":1,"trial_type":"image-button-response","trial_index":25,"time_elapsed":253620,"internal_node_id":"0.0-4.0-0.9","subject_id":"6146326710af7cfea335bce3","study_id":"60edd13110225f80f9f3709b","session_id":"6196c1f678eba4aac5ef9750","condition":"contingent","relevant_dimensions":["pattern","legs"],"bee_group":{"antennae":"X","wings":"X","pattern":"D","legs":"F"},"action":"avoid","summary":"bad-avoid","bonus":1.4000000000000008},{"rt":950.9000000003725,"stimulus":"\n                    <p><b>Action: <em>avoid</em></b></p>\n                    <p>This is the bee that you just saw.</p>\n                    <img src=\"bees-with-color/bee-B1DM.svg\" width=\"200\">\n                    <p><br>Your bonus pay is unchanged, and remains at $0.54.</p>\n            ","response":0,"trial_type":"html-button-response","trial_index":26,"time_elapsed":254572,"internal_node_id":"0.0-4.0-1.9","subject_id":"6146326710af7cfea335bce3","study_id":"60edd13110225f80f9f3709b","session_id":"6196c1f678eba4aac5ef9750","condition":"contingent","relevant_dimensions":["pattern","legs"],"bee_group":{"antennae":"X","wings":"X","pattern":"D","legs":"F"},"bonus":1.4000000000000008},{"rt":5778.100000000559,"stimulus":"bees-with-color/bee-B2DF.svg","response":1,"trial_type":"image-button-response","trial_index":27,"time_elapsed":260351,"internal_node_id":"0.0-4.0-0.10","subject_id":"6146326710af7cfea335bce3","study_id":"60edd13110225f80f9f3709b","session_id":"6196c1f678eba4aac5ef9750","condition":"contingent","relevant_dimensions":["pattern","legs"],"bee_group":{"antennae":"X","wings":"X","pattern":"D","legs":"F"},"action":"avoid","summary":"good-avoid","bonus":1.4000000000000008},{"rt":844.9000000003725,"stimulus":"\n                    <p><b>Action: <em>avoid</em></b></p>\n                    <p>This is the bee that you just saw.</p>\n                    <img src=\"bees-with-color/bee-B2DF.svg\" width=\"200\">\n                    <p><br>Your bonus pay is unchanged, and remains at $0.54.</p>\n            ","response":0,"trial_type":"html-button-response","trial_index":28,"time_elapsed":261197,"internal_node_id":"0.0-4.0-1.10","subject_id":"6146326710af7cfea335bce3","study_id":"60edd13110225f80f9f3709b","session_id":"6196c1f678eba4aac5ef9750","condition":"contingent","relevant_dimensions":["pattern","legs"],"bee_group":{"antennae":"X","wings":"X","pattern":"D","legs":"F"},"bonus":1.4000000000000008},{"rt":2958.0999999996275,"stimulus":"bees-with-color/bee-A1DM.svg","response":1,"trial_type":"image-button-response","trial_index":29,"time_elapsed":264157,"internal_node_id":"0.0-4.0-0.11","subject_id":"6146326710af7cfea335bce3","study_id":"60edd13110225f80f9f3709b","session_id":"6196c1f678eba4aac5ef9750","condition":"contingent","relevant_dimensions":["pattern","legs"],"bee_group":{"antennae":"X","wings":"X","pattern":"D","legs":"F"},"action":"avoid","summary":"bad-avoid","bonus":1.4000000000000008},{"rt":541.5,"stimulus":"\n                    <p><b>Action: <em>avoid</em></b></p>\n                    <p>This is the bee that you just saw.</p>\n                    <img src=\"bees-with-color/bee-A1DM.svg\" width=\"200\">\n                    <p><br>Your bonus pay is unchanged, and remains at $0.54.</p>\n            ","response":0,"trial_type":"html-button-response","trial_index":30,"time_elapsed":264699,"internal_node_id":"0.0-4.0-1.11","subject_id":"6146326710af7cfea335bce3","study_id":"60edd13110225f80f9f3709b","session_id":"6196c1f678eba4aac5ef9750","condition":"contingent","relevant_dimensions":["pattern","legs"],"bee_group":{"antennae":"X","wings":"X","pattern":"D","legs":"F"},"bonus":1.4000000000000008},{"rt":1114.300000000745,"stimulus":"bees-with-color/bee-B1SM.svg","response":0,"trial_type":"image-button-response","trial_index":31,"time_elapsed":265815,"internal_node_id":"0.0-4.0-0.12","subject_id":"6146326710af7cfea335bce3","study_id":"60edd13110225f80f9f3709b","session_id":"6196c1f678eba4aac5ef9750","condition":"contingent","relevant_dimensions":["pattern","legs"],"bee_group":{"antennae":"X","wings":"X","pattern":"D","legs":"F"},"action":"harvest","summary":"good-harvest","bonus":1.4000000000000008},{"rt":691.6000000005588,"stimulus":"\n                    <p><b>Action: <em>harvest</em></b></p>\n                    <p>This is the bee that you just saw.</p>\n                    <img src=\"bees-with-color/bee-B1SM.svg\" width=\"200\">\n                    <p><span class=\"greenText\"><b>Successful harvest!</b></span><br>Your pay has increased by $0.02. Your bonus pay is now $0.56.</p>\n            ","response":0,"trial_type":"html-button-response","trial_index":32,"time_elapsed":266507,"internal_node_id":"0.0-4.0-1.12","subject_id":"6146326710af7cfea335bce3","study_id":"60edd13110225f80f9f3709b","session_id":"6196c1f678eba4aac5ef9750","condition":"contingent","relevant_dimensions":["pattern","legs"],"bee_group":{"antennae":"X","wings":"X","pattern":"D","legs":"F"},"bonus":1.4000000000000008},{"rt":1477,"stimulus":"bees-with-color/bee-B1DF.svg","response":1,"trial_type":"image-button-response","trial_index":33,"time_elapsed":267985,"internal_node_id":"0.0-4.0-0.13","subject_id":"6146326710af7cfea335bce3","study_id":"60edd13110225f80f9f3709b","session_id":"6196c1f678eba4aac5ef9750","condition":"contingent","relevant_dimensions":["pattern","legs"],"bee_group":{"antennae":"X","wings":"X","pattern":"D","legs":"F"},"action":"avoid","summary":"good-avoid","bonus":1.4000000000000008},{"rt":506.90000000037253,"stimulus":"\n                    <p><b>Action: <em>avoid</em></b></p>\n                    <p>This is the bee that you just saw.</p>\n                    <img src=\"bees-with-color/bee-B1DF.svg\" width=\"200\">\n                    <p><br>Your bonus pay is unchanged, and remains at $0.56.</p>\n            ","response":0,"trial_type":"html-button-response","trial_index":34,"time_elapsed":268493,"internal_node_id":"0.0-4.0-1.13","subject_id":"6146326710af7cfea335bce3","study_id":"60edd13110225f80f9f3709b","session_id":"6196c1f678eba4aac5ef9750","condition":"contingent","relevant_dimensions":["pattern","legs"],"bee_group":{"antennae":"X","wings":"X","pattern":"D","legs":"F"},"bonus":1.4000000000000008},{"rt":974.0999999996275,"stimulus":"bees-with-color/bee-A2SM.svg","response":0,"trial_type":"image-button-response","trial_index":35,"time_elapsed":269468,"internal_node_id":"0.0-4.0-0.14","subject_id":"6146326710af7cfea335bce3","study_id":"60edd13110225f80f9f3709b","session_id":"6196c1f678eba4aac5ef9750","condition":"contingent","relevant_dimensions":["pattern","legs"],"bee_group":{"antennae":"X","wings":"X","pattern":"D","legs":"F"},"action":"harvest","summary":"good-harvest","bonus":1.4000000000000008},{"rt":917.7000000001863,"stimulus":"\n                    <p><b>Action: <em>harvest</em></b></p>\n                    <p>This is the bee that you just saw.</p>\n                    <img src=\"bees-with-color/bee-A2SM.svg\" width=\"200\">\n                    <p><span class=\"greenText\"><b>Successful harvest!</b></span><br>Your pay has increased by $0.02. Your bonus pay is now $0.58.</p>\n            ","response":0,"trial_type":"html-button-response","trial_index":36,"time_elapsed":270387,"internal_node_id":"0.0-4.0-1.14","subject_id":"6146326710af7cfea335bce3","study_id":"60edd13110225f80f9f3709b","session_id":"6196c1f678eba4aac5ef9750","condition":"contingent","relevant_dimensions":["pattern","legs"],"bee_group":{"antennae":"X","wings":"X","pattern":"D","legs":"F"},"bonus":1.4000000000000008},{"rt":2192.0999999996275,"stimulus":"bees-with-color/bee-B2SM.svg","response":0,"trial_type":"image-button-response","trial_index":37,"time_elapsed":272580,"internal_node_id":"0.0-4.0-0.15","subject_id":"6146326710af7cfea335bce3","study_id":"60edd13110225f80f9f3709b","session_id":"6196c1f678eba4aac5ef9750","condition":"contingent","relevant_dimensions":["pattern","legs"],"bee_group":{"antennae":"X","wings":"X","pattern":"D","legs":"F"},"action":"harvest","summary":"good-harvest","bonus":1.4000000000000008},{"rt":1111.2000000001863,"stimulus":"\n                    <p><b>Action: <em>harvest</em></b></p>\n                    <p>This is the bee that you just saw.</p>\n                    <img src=\"bees-with-color/bee-B2SM.svg\" width=\"200\">\n                    <p><span class=\"greenText\"><b>Successful harvest!</b></span><br>Your pay has increased by $0.02. Your bonus pay is now $0.60.</p>\n            ","response":0,"trial_type":"html-button-response","trial_index":38,"time_elapsed":273692,"internal_node_id":"0.0-4.0-1.15","subject_id":"6146326710af7cfea335bce3","study_id":"60edd13110225f80f9f3709b","session_id":"6196c1f678eba4aac5ef9750","condition":"contingent","relevant_dimensions":["pattern","legs"],"bee_group":{"antennae":"X","wings":"X","pattern":"D","legs":"F"},"bonus":1.4000000000000008},{"rt":3631.9000000003725,"stimulus":"bees-with-color/bee-A2DM.svg","response":1,"trial_type":"image-button-response","trial_index":39,"time_elapsed":277325,"internal_node_id":"0.0-4.0-0.16","subject_id":"6146326710af7cfea335bce3","study_id":"60edd13110225f80f9f3709b","session_id":"6196c1f678eba4aac5ef9750","condition":"contingent","relevant_dimensions":["pattern","legs"],"bee_group":{"antennae":"X","wings":"X","pattern":"D","legs":"F"},"action":"avoid","summary":"bad-avoid","bonus":1.4000000000000008},{"rt":1265.800000000745,"stimulus":"\n                    <p><b>Action: <em>avoid</em></b></p>\n                    <p>This is the bee that you just saw.</p>\n                    <img src=\"bees-with-color/bee-A2DM.svg\" width=\"200\">\n                    <p><br>Your bonus pay is unchanged, and remains at $0.60.</p>\n            ","response":0,"trial_type":"html-button-response","trial_index":40,"time_elapsed":278592,"internal_node_id":"0.0-4.0-1.16","subject_id":"6146326710af7cfea335bce3","study_id":"60edd13110225f80f9f3709b","session_id":"6196c1f678eba4aac5ef9750","condition":"contingent","relevant_dimensions":["pattern","legs"],"bee_group":{"antennae":"X","wings":"X","pattern":"D","legs":"F"},"bonus":1.4000000000000008},{"rt":3100.600000000559,"stimulus":"bees-with-color/bee-A1DM.svg","response":1,"trial_type":"image-button-response","trial_index":41,"time_elapsed":281694,"internal_node_id":"0.0-4.0-0.17","subject_id":"6146326710af7cfea335bce3","study_id":"60edd13110225f80f9f3709b","session_id":"6196c1f678eba4aac5ef9750","condition":"contingent","relevant_dimensions":["pattern","legs"],"bee_group":{"antennae":"X","wings":"X","pattern":"D","legs":"F"},"action":"avoid","summary":"bad-avoid","bonus":1.4000000000000008},{"rt":617.9000000003725,"stimulus":"\n                    <p><b>Action: <em>avoid</em></b></p>\n                    <p>This is the bee that you just saw.</p>\n                    <img src=\"bees-with-color/bee-A1DM.svg\" width=\"200\">\n                    <p><br>Your bonus pay is unchanged, and remains at $0.60.</p>\n            ","response":0,"trial_type":"html-button-response","trial_index":42,"time_elapsed":282313,"internal_node_id":"0.0-4.0-1.17","subject_id":"6146326710af7cfea335bce3","study_id":"60edd13110225f80f9f3709b","session_id":"6196c1f678eba4aac5ef9750","condition":"contingent","relevant_dimensions":["pattern","legs"],"bee_group":{"antennae":"X","wings":"X","pattern":"D","legs":"F"},"bonus":1.4000000000000008},{"rt":738.2000000001863,"stimulus":"bees-with-color/bee-A2DF.svg","response":1,"trial_type":"image-button-response","trial_index":43,"time_elapsed":283052,"internal_node_id":"0.0-4.0-0.18","subject_id":"6146326710af7cfea335bce3","study_id":"60edd13110225f80f9f3709b","session_id":"6196c1f678eba4aac5ef9750","condition":"contingent","relevant_dimensions":["pattern","legs"],"bee_group":{"antennae":"X","wings":"X","pattern":"D","legs":"F"},"action":"avoid","summary":"good-avoid","bonus":1.4000000000000008},{"rt":586,"stimulus":"\n                    <p><b>Action: <em>avoid</em></b></p>\n                    <p>This is the bee that you just saw.</p>\n                    <img src=\"bees-with-color/bee-A2DF.svg\" width=\"200\">\n                    <p><br>Your bonus pay is unchanged, and remains at $0.60.</p>\n            ","response":0,"trial_type":"html-button-response","trial_index":44,"time_elapsed":283639,"internal_node_id":"0.0-4.0-1.18","subject_id":"6146326710af7cfea335bce3","study_id":"60edd13110225f80f9f3709b","session_id":"6196c1f678eba4aac5ef9750","condition":"contingent","relevant_dimensions":["pattern","legs"],"bee_group":{"antennae":"X","wings":"X","pattern":"D","legs":"F"},"bonus":1.4000000000000008},{"rt":795.7999999998137,"stimulus":"bees-with-color/bee-B2SM.svg","response":0,"trial_type":"image-button-response","trial_index":45,"time_elapsed":284436,"internal_node_id":"0.0-4.0-0.19","subject_id":"6146326710af7cfea335bce3","study_id":"60edd13110225f80f9f3709b","session_id":"6196c1f678eba4aac5ef9750","condition":"contingent","relevant_dimensions":["pattern","legs"],"bee_group":{"antennae":"X","wings":"X","pattern":"D","legs":"F"},"action":"harvest","summary":"good-harvest","bonus":1.4000000000000008},{"rt":548.2999999998137,"stimulus":"\n                    <p><b>Action: <em>harvest</em></b></p>\n                    <p>This is the bee that you just saw.</p>\n                    <img src=\"bees-with-color/bee-B2SM.svg\" width=\"200\">\n                    <p><span class=\"greenText\"><b>Successful harvest!</b></span><br>Your pay has increased by $0.02. Your bonus pay is now $0.62.</p>\n            ","response":0,"trial_type":"html-button-response","trial_index":46,"time_elapsed":284986,"internal_node_id":"0.0-4.0-1.19","subject_id":"6146326710af7cfea335bce3","study_id":"60edd13110225f80f9f3709b","session_id":"6196c1f678eba4aac5ef9750","condition":"contingent","relevant_dimensions":["pattern","legs"],"bee_group":{"antennae":"X","wings":"X","pattern":"D","legs":"F"},"bonus":1.4000000000000008},{"rt":977.9000000003725,"stimulus":"bees-with-color/bee-B2DM.svg","response":1,"trial_type":"image-button-response","trial_index":47,"time_elapsed":285964,"internal_node_id":"0.0-4.0-0.20","subject_id":"6146326710af7cfea335bce3","study_id":"60edd13110225f80f9f3709b","session_id":"6196c1f678eba4aac5ef9750","condition":"contingent","relevant_dimensions":["pattern","legs"],"bee_group":{"antennae":"X","wings":"X","pattern":"D","legs":"F"},"action":"avoid","summary":"bad-avoid","bonus":1.4000000000000008},{"rt":704.0999999996275,"stimulus":"\n                    <p><b>Action: <em>avoid</em></b></p>\n                    <p>This is the bee that you just saw.</p>\n                    <img src=\"bees-with-color/bee-B2DM.svg\" width=\"200\">\n                    <p><br>Your bonus pay is unchanged, and remains at $0.62.</p>\n            ","response":0,"trial_type":"html-button-response","trial_index":48,"time_elapsed":286669,"internal_node_id":"0.0-4.0-1.20","subject_id":"6146326710af7cfea335bce3","study_id":"60edd13110225f80f9f3709b","session_id":"6196c1f678eba4aac5ef9750","condition":"contingent","relevant_dimensions":["pattern","legs"],"bee_group":{"antennae":"X","wings":"X","pattern":"D","legs":"F"},"bonus":1.4000000000000008},{"rt":983.2000000001863,"stimulus":"bees-with-color/bee-A1SF.svg","response":0,"trial_type":"image-button-response","trial_index":49,"time_elapsed":287653,"internal_node_id":"0.0-4.0-0.21","subject_id":"6146326710af7cfea335bce3","study_id":"60edd13110225f80f9f3709b","session_id":"6196c1f678eba4aac5ef9750","condition":"contingent","relevant_dimensions":["pattern","legs"],"bee_group":{"antennae":"X","wings":"X","pattern":"D","legs":"F"},"action":"harvest","summary":"good-harvest","bonus":1.4000000000000008},{"rt":560.0999999996275,"stimulus":"\n                    <p><b>Action: <em>harvest</em></b></p>\n                    <p>This is the bee that you just saw.</p>\n                    <img src=\"bees-with-color/bee-A1SF.svg\" width=\"200\">\n                    <p><span class=\"greenText\"><b>Successful harvest!</b></span><br>Your pay has increased by $0.02. Your bonus pay is now $0.64.</p>\n            ","response":0,"trial_type":"html-button-response","trial_index":50,"time_elapsed":288214,"internal_node_id":"0.0-4.0-1.21","subject_id":"6146326710af7cfea335bce3","study_id":"60edd13110225f80f9f3709b","session_id":"6196c1f678eba4aac5ef9750","condition":"contingent","relevant_dimensions":["pattern","legs"],"bee_group":{"antennae":"X","wings":"X","pattern":"D","legs":"F"},"bonus":1.4000000000000008},{"rt":1013.1000000005588,"stimulus":"bees-with-color/bee-B1DF.svg","response":1,"trial_type":"image-button-response","trial_index":51,"time_elapsed":289228,"internal_node_id":"0.0-4.0-0.22","subject_id":"6146326710af7cfea335bce3","study_id":"60edd13110225f80f9f3709b","session_id":"6196c1f678eba4aac5ef9750","condition":"contingent","relevant_dimensions":["pattern","legs"],"bee_group":{"antennae":"X","wings":"X","pattern":"D","legs":"F"},"action":"avoid","summary":"good-avoid","bonus":1.4000000000000008},{"rt":784.9000000003725,"stimulus":"\n                    <p><b>Action: <em>avoid</em></b></p>\n                    <p>This is the bee that you just saw.</p>\n                    <img src=\"bees-with-color/bee-B1DF.svg\" width=\"200\">\n                    <p><br>Your bonus pay is unchanged, and remains at $0.64.</p>\n            ","response":0,"trial_type":"html-button-response","trial_index":52,"time_elapsed":290014,"internal_node_id":"0.0-4.0-1.22","subject_id":"6146326710af7cfea335bce3","study_id":"60edd13110225f80f9f3709b","session_id":"6196c1f678eba4aac5ef9750","condition":"contingent","relevant_dimensions":["pattern","legs"],"bee_group":{"antennae":"X","wings":"X","pattern":"D","legs":"F"},"bonus":1.4000000000000008},{"rt":1030,"stimulus":"bees-with-color/bee-A2SM.svg","response":0,"trial_type":"image-button-response","trial_index":53,"time_elapsed":291045,"internal_node_id":"0.0-4.0-0.23","subject_id":"6146326710af7cfea335bce3","study_id":"60edd13110225f80f9f3709b","session_id":"6196c1f678eba4aac5ef9750","condition":"contingent","relevant_dimensions":["pattern","legs"],"bee_group":{"antennae":"X","wings":"X","pattern":"D","legs":"F"},"action":"harvest","summary":"good-harvest","bonus":1.4000000000000008},{"rt":557.2000000001863,"stimulus":"\n                    <p><b>Action: <em>harvest</em></b></p>\n                    <p>This is the bee that you just saw.</p>\n                    <img src=\"bees-with-color/bee-A2SM.svg\" width=\"200\">\n                    <p><span class=\"greenText\"><b>Successful harvest!</b></span><br>Your pay has increased by $0.02. Your bonus pay is now $0.66.</p>\n            ","response":0,"trial_type":"html-button-response","trial_index":54,"time_elapsed":291603,"internal_node_id":"0.0-4.0-1.23","subject_id":"6146326710af7cfea335bce3","study_id":"60edd13110225f80f9f3709b","session_id":"6196c1f678eba4aac5ef9750","condition":"contingent","relevant_dimensions":["pattern","legs"],"bee_group":{"antennae":"X","wings":"X","pattern":"D","legs":"F"},"bonus":1.4000000000000008},{"rt":778.2000000001863,"stimulus":"bees-with-color/bee-B2DF.svg","response":1,"trial_type":"image-button-response","trial_index":55,"time_elapsed":292382,"internal_node_id":"0.0-4.0-0.24","subject_id":"6146326710af7cfea335bce3","study_id":"60edd13110225f80f9f3709b","session_id":"6196c1f678eba4aac5ef9750","condition":"contingent","relevant_dimensions":["pattern","legs"],"bee_group":{"antennae":"X","wings":"X","pattern":"D","legs":"F"},"action":"avoid","summary":"good-avoid","bonus":1.4000000000000008},{"rt":476,"stimulus":"\n                    <p><b>Action: <em>avoid</em></b></p>\n                    <p>This is the bee that you just saw.</p>\n                    <img src=\"bees-with-color/bee-B2DF.svg\" width=\"200\">\n                    <p><br>Your bonus pay is unchanged, and remains at $0.66.</p>\n            ","response":0,"trial_type":"html-button-response","trial_index":56,"time_elapsed":292859,"internal_node_id":"0.0-4.0-1.24","subject_id":"6146326710af7cfea335bce3","study_id":"60edd13110225f80f9f3709b","session_id":"6196c1f678eba4aac5ef9750","condition":"contingent","relevant_dimensions":["pattern","legs"],"bee_group":{"antennae":"X","wings":"X","pattern":"D","legs":"F"},"bonus":1.4000000000000008},{"rt":1146,"stimulus":"bees-with-color/bee-B1SM.svg","response":0,"trial_type":"image-button-response","trial_index":57,"time_elapsed":294006,"internal_node_id":"0.0-4.0-0.25","subject_id":"6146326710af7cfea335bce3","study_id":"60edd13110225f80f9f3709b","session_id":"6196c1f678eba4aac5ef9750","condition":"contingent","relevant_dimensions":["pattern","legs"],"bee_group":{"antennae":"X","wings":"X","pattern":"D","legs":"F"},"action":"harvest","summary":"good-harvest","bonus":1.4000000000000008},{"rt":474.1000000005588,"stimulus":"\n                    <p><b>Action: <em>harvest</em></b></p>\n                    <p>This is the bee that you just saw.</p>\n                    <img src=\"bees-with-color/bee-B1SM.svg\" width=\"200\">\n                    <p><span class=\"greenText\"><b>Successful harvest!</b></span><br>Your pay has increased by $0.02. Your bonus pay is now $0.68.</p>\n            ","response":0,"trial_type":"html-button-response","trial_index":58,"time_elapsed":294481,"internal_node_id":"0.0-4.0-1.25","subject_id":"6146326710af7cfea335bce3","study_id":"60edd13110225f80f9f3709b","session_id":"6196c1f678eba4aac5ef9750","condition":"contingent","relevant_dimensions":["pattern","legs"],"bee_group":{"antennae":"X","wings":"X","pattern":"D","legs":"F"},"bonus":1.4000000000000008},{"rt":831.2000000001863,"stimulus":"bees-with-color/bee-B1DM.svg","response":1,"trial_type":"image-button-response","trial_index":59,"time_elapsed":295313,"internal_node_id":"0.0-4.0-0.26","subject_id":"6146326710af7cfea335bce3","study_id":"60edd13110225f80f9f3709b","session_id":"6196c1f678eba4aac5ef9750","condition":"contingent","relevant_dimensions":["pattern","legs"],"bee_group":{"antennae":"X","wings":"X","pattern":"D","legs":"F"},"action":"avoid","summary":"bad-avoid","bonus":1.4000000000000008},{"rt":429.79999999981374,"stimulus":"\n                    <p><b>Action: <em>avoid</em></b></p>\n                    <p>This is the bee that you just saw.</p>\n                    <img src=\"bees-with-color/bee-B1DM.svg\" width=\"200\">\n                    <p><br>Your bonus pay is unchanged, and remains at $0.68.</p>\n            ","response":0,"trial_type":"html-button-response","trial_index":60,"time_elapsed":295744,"internal_node_id":"0.0-4.0-1.26","subject_id":"6146326710af7cfea335bce3","study_id":"60edd13110225f80f9f3709b","session_id":"6196c1f678eba4aac5ef9750","condition":"contingent","relevant_dimensions":["pattern","legs"],"bee_group":{"antennae":"X","wings":"X","pattern":"D","legs":"F"},"bonus":1.4000000000000008},{"rt":777.3999999994412,"stimulus":"bees-with-color/bee-A1SM.svg","response":0,"trial_type":"image-button-response","trial_index":61,"time_elapsed":296523,"internal_node_id":"0.0-4.0-0.27","subject_id":"6146326710af7cfea335bce3","study_id":"60edd13110225f80f9f3709b","session_id":"6196c1f678eba4aac5ef9750","condition":"contingent","relevant_dimensions":["pattern","legs"],"bee_group":{"antennae":"X","wings":"X","pattern":"D","legs":"F"},"action":"harvest","summary":"good-harvest","bonus":1.4000000000000008},{"rt":499.80000000074506,"stimulus":"\n                    <p><b>Action: <em>harvest</em></b></p>\n                    <p>This is the bee that you just saw.</p>\n                    <img src=\"bees-with-color/bee-A1SM.svg\" width=\"200\">\n                    <p><span class=\"greenText\"><b>Successful harvest!</b></span><br>Your pay has increased by $0.02. Your bonus pay is now $0.70.</p>\n            ","response":0,"trial_type":"html-button-response","trial_index":62,"time_elapsed":297023,"internal_node_id":"0.0-4.0-1.27","subject_id":"6146326710af7cfea335bce3","study_id":"60edd13110225f80f9f3709b","session_id":"6196c1f678eba4aac5ef9750","condition":"contingent","relevant_dimensions":["pattern","legs"],"bee_group":{"antennae":"X","wings":"X","pattern":"D","legs":"F"},"bonus":1.4000000000000008},{"rt":1029.9000000003725,"stimulus":"bees-with-color/bee-A2SF.svg","response":0,"trial_type":"image-button-response","trial_index":63,"time_elapsed":298054,"internal_node_id":"0.0-4.0-0.28","subject_id":"6146326710af7cfea335bce3","study_id":"60edd13110225f80f9f3709b","session_id":"6196c1f678eba4aac5ef9750","condition":"contingent","relevant_dimensions":["pattern","legs"],"bee_group":{"antennae":"X","wings":"X","pattern":"D","legs":"F"},"action":"harvest","summary":"good-harvest","bonus":1.4000000000000008},{"rt":443.09999999962747,"stimulus":"\n                    <p><b>Action: <em>harvest</em></b></p>\n                    <p>This is the bee that you just saw.</p>\n                    <img src=\"bees-with-color/bee-A2SF.svg\" width=\"200\">\n                    <p><span class=\"greenText\"><b>Successful harvest!</b></span><br>Your pay has increased by $0.02. Your bonus pay is now $0.72.</p>\n            ","response":0,"trial_type":"html-button-response","trial_index":64,"time_elapsed":298499,"internal_node_id":"0.0-4.0-1.28","subject_id":"6146326710af7cfea335bce3","study_id":"60edd13110225f80f9f3709b","session_id":"6196c1f678eba4aac5ef9750","condition":"contingent","relevant_dimensions":["pattern","legs"],"bee_group":{"antennae":"X","wings":"X","pattern":"D","legs":"F"},"bonus":1.4000000000000008},{"rt":1075.8999999994412,"stimulus":"bees-with-color/bee-B2SF.svg","response":0,"trial_type":"image-button-response","trial_index":65,"time_elapsed":299575,"internal_node_id":"0.0-4.0-0.29","subject_id":"6146326710af7cfea335bce3","study_id":"60edd13110225f80f9f3709b","session_id":"6196c1f678eba4aac5ef9750","condition":"contingent","relevant_dimensions":["pattern","legs"],"bee_group":{"antennae":"X","wings":"X","pattern":"D","legs":"F"},"action":"harvest","summary":"good-harvest","bonus":1.4000000000000008},{"rt":428.8999999994412,"stimulus":"\n                    <p><b>Action: <em>harvest</em></b></p>\n                    <p>This is the bee that you just saw.</p>\n                    <img src=\"bees-with-color/bee-B2SF.svg\" width=\"200\">\n                    <p><span class=\"greenText\"><b>Successful harvest!</b></span><br>Your pay has increased by $0.02. Your bonus pay is now $0.74.</p>\n            ","response":0,"trial_type":"html-button-response","trial_index":66,"time_elapsed":300005,"internal_node_id":"0.0-4.0-1.29","subject_id":"6146326710af7cfea335bce3","study_id":"60edd13110225f80f9f3709b","session_id":"6196c1f678eba4aac5ef9750","condition":"contingent","relevant_dimensions":["pattern","legs"],"bee_group":{"antennae":"X","wings":"X","pattern":"D","legs":"F"},"bonus":1.4000000000000008},{"rt":867.2000000001863,"stimulus":"bees-with-color/bee-A1DF.svg","response":1,"trial_type":"image-button-response","trial_index":67,"time_elapsed":300873,"internal_node_id":"0.0-4.0-0.30","subject_id":"6146326710af7cfea335bce3","study_id":"60edd13110225f80f9f3709b","session_id":"6196c1f678eba4aac5ef9750","condition":"contingent","relevant_dimensions":["pattern","legs"],"bee_group":{"antennae":"X","wings":"X","pattern":"D","legs":"F"},"action":"avoid","summary":"good-avoid","bonus":1.4000000000000008},{"rt":431.79999999981374,"stimulus":"\n                    <p><b>Action: <em>avoid</em></b></p>\n                    <p>This is the bee that you just saw.</p>\n                    <img src=\"bees-with-color/bee-A1DF.svg\" width=\"200\">\n                    <p><br>Your bonus pay is unchanged, and remains at $0.74.</p>\n            ","response":0,"trial_type":"html-button-response","trial_index":68,"time_elapsed":301306,"internal_node_id":"0.0-4.0-1.30","subject_id":"6146326710af7cfea335bce3","study_id":"60edd13110225f80f9f3709b","session_id":"6196c1f678eba4aac5ef9750","condition":"contingent","relevant_dimensions":["pattern","legs"],"bee_group":{"antennae":"X","wings":"X","pattern":"D","legs":"F"},"bonus":1.4000000000000008},{"rt":984.5,"stimulus":"bees-with-color/bee-B1SF.svg","response":0,"trial_type":"image-button-response","trial_index":69,"time_elapsed":302291,"internal_node_id":"0.0-4.0-0.31","subject_id":"6146326710af7cfea335bce3","study_id":"60edd13110225f80f9f3709b","session_id":"6196c1f678eba4aac5ef9750","condition":"contingent","relevant_dimensions":["pattern","legs"],"bee_group":{"antennae":"X","wings":"X","pattern":"D","legs":"F"},"action":"harvest","summary":"good-harvest","bonus":1.4000000000000008},{"rt":447.1000000005588,"stimulus":"\n                    <p><b>Action: <em>harvest</em></b></p>\n                    <p>This is the bee that you just saw.</p>\n                    <img src=\"bees-with-color/bee-B1SF.svg\" width=\"200\">\n                    <p><span class=\"greenText\"><b>Successful harvest!</b></span><br>Your pay has increased by $0.02. Your bonus pay is now $0.76.</p>\n            ","response":0,"trial_type":"html-button-response","trial_index":70,"time_elapsed":302739,"internal_node_id":"0.0-4.0-1.31","subject_id":"6146326710af7cfea335bce3","study_id":"60edd13110225f80f9f3709b","session_id":"6196c1f678eba4aac5ef9750","condition":"contingent","relevant_dimensions":["pattern","legs"],"bee_group":{"antennae":"X","wings":"X","pattern":"D","legs":"F"},"bonus":1.4000000000000008},{"rt":978.8999999994412,"stimulus":"bees-with-color/bee-A2DM.svg","response":1,"trial_type":"image-button-response","trial_index":71,"time_elapsed":303719,"internal_node_id":"0.0-4.0-0.32","subject_id":"6146326710af7cfea335bce3","study_id":"60edd13110225f80f9f3709b","session_id":"6196c1f678eba4aac5ef9750","condition":"contingent","relevant_dimensions":["pattern","legs"],"bee_group":{"antennae":"X","wings":"X","pattern":"D","legs":"F"},"action":"avoid","summary":"bad-avoid","bonus":1.4000000000000008},{"rt":431.1000000005588,"stimulus":"\n                    <p><b>Action: <em>avoid</em></b></p>\n                    <p>This is the bee that you just saw.</p>\n                    <img src=\"bees-with-color/bee-A2DM.svg\" width=\"200\">\n                    <p><br>Your bonus pay is unchanged, and remains at $0.76.</p>\n            ","response":0,"trial_type":"html-button-response","trial_index":72,"time_elapsed":304152,"internal_node_id":"0.0-4.0-1.32","subject_id":"6146326710af7cfea335bce3","study_id":"60edd13110225f80f9f3709b","session_id":"6196c1f678eba4aac5ef9750","condition":"contingent","relevant_dimensions":["pattern","legs"],"bee_group":{"antennae":"X","wings":"X","pattern":"D","legs":"F"},"bonus":1.4000000000000008},{"rt":864.5999999996275,"stimulus":"bees-with-color/bee-A1SM.svg","response":0,"trial_type":"image-button-response","trial_index":73,"time_elapsed":305017,"internal_node_id":"0.0-4.0-0.33","subject_id":"6146326710af7cfea335bce3","study_id":"60edd13110225f80f9f3709b","session_id":"6196c1f678eba4aac5ef9750","condition":"contingent","relevant_dimensions":["pattern","legs"],"bee_group":{"antennae":"X","wings":"X","pattern":"D","legs":"F"},"action":"harvest","summary":"good-harvest","bonus":1.4000000000000008},{"rt":464.09999999962747,"stimulus":"\n                    <p><b>Action: <em>harvest</em></b></p>\n                    <p>This is the bee that you just saw.</p>\n                    <img src=\"bees-with-color/bee-A1SM.svg\" width=\"200\">\n                    <p><span class=\"greenText\"><b>Successful harvest!</b></span><br>Your pay has increased by $0.02. Your bonus pay is now $0.78.</p>\n            ","response":0,"trial_type":"html-button-response","trial_index":74,"time_elapsed":305482,"internal_node_id":"0.0-4.0-1.33","subject_id":"6146326710af7cfea335bce3","study_id":"60edd13110225f80f9f3709b","session_id":"6196c1f678eba4aac5ef9750","condition":"contingent","relevant_dimensions":["pattern","legs"],"bee_group":{"antennae":"X","wings":"X","pattern":"D","legs":"F"},"bonus":1.4000000000000008},{"rt":924.2999999998137,"stimulus":"bees-with-color/bee-B2DM.svg","response":1,"trial_type":"image-button-response","trial_index":75,"time_elapsed":306407,"internal_node_id":"0.0-4.0-0.34","subject_id":"6146326710af7cfea335bce3","study_id":"60edd13110225f80f9f3709b","session_id":"6196c1f678eba4aac5ef9750","condition":"contingent","relevant_dimensions":["pattern","legs"],"bee_group":{"antennae":"X","wings":"X","pattern":"D","legs":"F"},"action":"avoid","summary":"bad-avoid","bonus":1.4000000000000008},{"rt":437,"stimulus":"\n                    <p><b>Action: <em>avoid</em></b></p>\n                    <p>This is the bee that you just saw.</p>\n                    <img src=\"bees-with-color/bee-B2DM.svg\" width=\"200\">\n                    <p><br>Your bonus pay is unchanged, and remains at $0.78.</p>\n            ","response":0,"trial_type":"html-button-response","trial_index":76,"time_elapsed":306845,"internal_node_id":"0.0-4.0-1.34","subject_id":"6146326710af7cfea335bce3","study_id":"60edd13110225f80f9f3709b","session_id":"6196c1f678eba4aac5ef9750","condition":"contingent","relevant_dimensions":["pattern","legs"],"bee_group":{"antennae":"X","wings":"X","pattern":"D","legs":"F"},"bonus":1.4000000000000008},{"rt":809.1000000005588,"stimulus":"bees-with-color/bee-B2SM.svg","response":0,"trial_type":"image-button-response","trial_index":77,"time_elapsed":307655,"internal_node_id":"0.0-4.0-0.35","subject_id":"6146326710af7cfea335bce3","study_id":"60edd13110225f80f9f3709b","session_id":"6196c1f678eba4aac5ef9750","condition":"contingent","relevant_dimensions":["pattern","legs"],"bee_group":{"antennae":"X","wings":"X","pattern":"D","legs":"F"},"action":"harvest","summary":"good-harvest","bonus":1.4000000000000008},{"rt":451,"stimulus":"\n                    <p><b>Action: <em>harvest</em></b></p>\n                    <p>This is the bee that you just saw.</p>\n                    <img src=\"bees-with-color/bee-B2SM.svg\" width=\"200\">\n                    <p><span class=\"greenText\"><b>Successful harvest!</b></span><br>Your pay has increased by $0.02. Your bonus pay is now $0.80.</p>\n            ","response":0,"trial_type":"html-button-response","trial_index":78,"time_elapsed":308107,"internal_node_id":"0.0-4.0-1.35","subject_id":"6146326710af7cfea335bce3","study_id":"60edd13110225f80f9f3709b","session_id":"6196c1f678eba4aac5ef9750","condition":"contingent","relevant_dimensions":["pattern","legs"],"bee_group":{"antennae":"X","wings":"X","pattern":"D","legs":"F"},"bonus":1.4000000000000008},{"rt":935.0999999996275,"stimulus":"bees-with-color/bee-A1DF.svg","response":1,"trial_type":"image-button-response","trial_index":79,"time_elapsed":309044,"internal_node_id":"0.0-4.0-0.36","subject_id":"6146326710af7cfea335bce3","study_id":"60edd13110225f80f9f3709b","session_id":"6196c1f678eba4aac5ef9750","condition":"contingent","relevant_dimensions":["pattern","legs"],"bee_group":{"antennae":"X","wings":"X","pattern":"D","legs":"F"},"action":"avoid","summary":"good-avoid","bonus":1.4000000000000008},{"rt":424.80000000074506,"stimulus":"\n                    <p><b>Action: <em>avoid</em></b></p>\n                    <p>This is the bee that you just saw.</p>\n                    <img src=\"bees-with-color/bee-A1DF.svg\" width=\"200\">\n                    <p><br>Your bonus pay is unchanged, and remains at $0.80.</p>\n            ","response":0,"trial_type":"html-button-response","trial_index":80,"time_elapsed":309469,"internal_node_id":"0.0-4.0-1.36","subject_id":"6146326710af7cfea335bce3","study_id":"60edd13110225f80f9f3709b","session_id":"6196c1f678eba4aac5ef9750","condition":"contingent","relevant_dimensions":["pattern","legs"],"bee_group":{"antennae":"X","wings":"X","pattern":"D","legs":"F"},"bonus":1.4000000000000008},{"rt":819.2999999998137,"stimulus":"bees-with-color/bee-B1SM.svg","response":0,"trial_type":"image-button-response","trial_index":81,"time_elapsed":310290,"internal_node_id":"0.0-4.0-0.37","subject_id":"6146326710af7cfea335bce3","study_id":"60edd13110225f80f9f3709b","session_id":"6196c1f678eba4aac5ef9750","condition":"contingent","relevant_dimensions":["pattern","legs"],"bee_group":{"antennae":"X","wings":"X","pattern":"D","legs":"F"},"action":"harvest","summary":"good-harvest","bonus":1.4000000000000008},{"rt":441.80000000074506,"stimulus":"\n                    <p><b>Action: <em>harvest</em></b></p>\n                    <p>This is the bee that you just saw.</p>\n                    <img src=\"bees-with-color/bee-B1SM.svg\" width=\"200\">\n                    <p><span class=\"greenText\"><b>Successful harvest!</b></span><br>Your pay has increased by $0.02. Your bonus pay is now $0.82.</p>\n            ","response":0,"trial_type":"html-button-response","trial_index":82,"time_elapsed":310732,"internal_node_id":"0.0-4.0-1.37","subject_id":"6146326710af7cfea335bce3","study_id":"60edd13110225f80f9f3709b","session_id":"6196c1f678eba4aac5ef9750","condition":"contingent","relevant_dimensions":["pattern","legs"],"bee_group":{"antennae":"X","wings":"X","pattern":"D","legs":"F"},"bonus":1.4000000000000008},{"rt":1472.2000000001863,"stimulus":"bees-with-color/bee-B2DF.svg","response":1,"trial_type":"image-button-response","trial_index":83,"time_elapsed":312206,"internal_node_id":"0.0-4.0-0.38","subject_id":"6146326710af7cfea335bce3","study_id":"60edd13110225f80f9f3709b","session_id":"6196c1f678eba4aac5ef9750","condition":"contingent","relevant_dimensions":["pattern","legs"],"bee_group":{"antennae":"X","wings":"X","pattern":"D","legs":"F"},"action":"avoid","summary":"good-avoid","bonus":1.4000000000000008},{"rt":444.09999999962747,"stimulus":"\n                    <p><b>Action: <em>avoid</em></b></p>\n                    <p>This is the bee that you just saw.</p>\n                    <img src=\"bees-with-color/bee-B2DF.svg\" width=\"200\">\n                    <p><br>Your bonus pay is unchanged, and remains at $0.82.</p>\n            ","response":0,"trial_type":"html-button-response","trial_index":84,"time_elapsed":312651,"internal_node_id":"0.0-4.0-1.38","subject_id":"6146326710af7cfea335bce3","study_id":"60edd13110225f80f9f3709b","session_id":"6196c1f678eba4aac5ef9750","condition":"contingent","relevant_dimensions":["pattern","legs"],"bee_group":{"antennae":"X","wings":"X","pattern":"D","legs":"F"},"bonus":1.4000000000000008},{"rt":1027.6000000005588,"stimulus":"bees-with-color/bee-A1DM.svg","response":1,"trial_type":"image-button-response","trial_index":85,"time_elapsed":313679,"internal_node_id":"0.0-4.0-0.39","subject_id":"6146326710af7cfea335bce3","study_id":"60edd13110225f80f9f3709b","session_id":"6196c1f678eba4aac5ef9750","condition":"contingent","relevant_dimensions":["pattern","legs"],"bee_group":{"antennae":"X","wings":"X","pattern":"D","legs":"F"},"action":"avoid","summary":"bad-avoid","bonus":1.4000000000000008},{"rt":381,"stimulus":"\n                    <p><b>Action: <em>avoid</em></b></p>\n                    <p>This is the bee that you just saw.</p>\n                    <img src=\"bees-with-color/bee-A1DM.svg\" width=\"200\">\n                    <p><br>Your bonus pay is unchanged, and remains at $0.82.</p>\n            ","response":0,"trial_type":"html-button-response","trial_index":86,"time_elapsed":314062,"internal_node_id":"0.0-4.0-1.39","subject_id":"6146326710af7cfea335bce3","study_id":"60edd13110225f80f9f3709b","session_id":"6196c1f678eba4aac5ef9750","condition":"contingent","relevant_dimensions":["pattern","legs"],"bee_group":{"antennae":"X","wings":"X","pattern":"D","legs":"F"},"bonus":1.4000000000000008},{"rt":956,"stimulus":"bees-with-color/bee-B1SF.svg","response":0,"trial_type":"image-button-response","trial_index":87,"time_elapsed":315019,"internal_node_id":"0.0-4.0-0.40","subject_id":"6146326710af7cfea335bce3","study_id":"60edd13110225f80f9f3709b","session_id":"6196c1f678eba4aac5ef9750","condition":"contingent","relevant_dimensions":["pattern","legs"],"bee_group":{"antennae":"X","wings":"X","pattern":"D","legs":"F"},"action":"harvest","summary":"good-harvest","bonus":1.4000000000000008},{"rt":431.8999999994412,"stimulus":"\n                    <p><b>Action: <em>harvest</em></b></p>\n                    <p>This is the bee that you just saw.</p>\n                    <img src=\"bees-with-color/bee-B1SF.svg\" width=\"200\">\n                    <p><span class=\"greenText\"><b>Successful harvest!</b></span><br>Your pay has increased by $0.02. Your bonus pay is now $0.84.</p>\n            ","response":0,"trial_type":"html-button-response","trial_index":88,"time_elapsed":315452,"internal_node_id":"0.0-4.0-1.40","subject_id":"6146326710af7cfea335bce3","study_id":"60edd13110225f80f9f3709b","session_id":"6196c1f678eba4aac5ef9750","condition":"contingent","relevant_dimensions":["pattern","legs"],"bee_group":{"antennae":"X","wings":"X","pattern":"D","legs":"F"},"bonus":1.4000000000000008},{"rt":1269.9000000003725,"stimulus":"bees-with-color/bee-B1DF.svg","response":1,"trial_type":"image-button-response","trial_index":89,"time_elapsed":316722,"internal_node_id":"0.0-4.0-0.41","subject_id":"6146326710af7cfea335bce3","study_id":"60edd13110225f80f9f3709b","session_id":"6196c1f678eba4aac5ef9750","condition":"contingent","relevant_dimensions":["pattern","legs"],"bee_group":{"antennae":"X","wings":"X","pattern":"D","legs":"F"},"action":"avoid","summary":"good-avoid","bonus":1.4000000000000008},{"rt":747.3000000007451,"stimulus":"\n                    <p><b>Action: <em>avoid</em></b></p>\n                    <p>This is the bee that you just saw.</p>\n                    <img src=\"bees-with-color/bee-B1DF.svg\" width=\"200\">\n                    <p><br>Your bonus pay is unchanged, and remains at $0.84.</p>\n            ","response":0,"trial_type":"html-button-response","trial_index":90,"time_elapsed":317470,"internal_node_id":"0.0-4.0-1.41","subject_id":"6146326710af7cfea335bce3","study_id":"60edd13110225f80f9f3709b","session_id":"6196c1f678eba4aac5ef9750","condition":"contingent","relevant_dimensions":["pattern","legs"],"bee_group":{"antennae":"X","wings":"X","pattern":"D","legs":"F"},"bonus":1.4000000000000008},{"rt":794.2000000001863,"stimulus":"bees-with-color/bee-A2DF.svg","response":1,"trial_type":"image-button-response","trial_index":91,"time_elapsed":318265,"internal_node_id":"0.0-4.0-0.42","subject_id":"6146326710af7cfea335bce3","study_id":"60edd13110225f80f9f3709b","session_id":"6196c1f678eba4aac5ef9750","condition":"contingent","relevant_dimensions":["pattern","legs"],"bee_group":{"antennae":"X","wings":"X","pattern":"D","legs":"F"},"action":"avoid","summary":"good-avoid","bonus":1.4000000000000008},{"rt":401,"stimulus":"\n                    <p><b>Action: <em>avoid</em></b></p>\n                    <p>This is the bee that you just saw.</p>\n                    <img src=\"bees-with-color/bee-A2DF.svg\" width=\"200\">\n                    <p><br>Your bonus pay is unchanged, and remains at $0.84.</p>\n            ","response":0,"trial_type":"html-button-response","trial_index":92,"time_elapsed":318667,"internal_node_id":"0.0-4.0-1.42","subject_id":"6146326710af7cfea335bce3","study_id":"60edd13110225f80f9f3709b","session_id":"6196c1f678eba4aac5ef9750","condition":"contingent","relevant_dimensions":["pattern","legs"],"bee_group":{"antennae":"X","wings":"X","pattern":"D","legs":"F"},"bonus":1.4000000000000008},{"rt":1750.0999999996275,"stimulus":"bees-with-color/bee-B1DM.svg","response":1,"trial_type":"image-button-response","trial_index":93,"time_elapsed":320418,"internal_node_id":"0.0-4.0-0.43","subject_id":"6146326710af7cfea335bce3","study_id":"60edd13110225f80f9f3709b","session_id":"6196c1f678eba4aac5ef9750","condition":"contingent","relevant_dimensions":["pattern","legs"],"bee_group":{"antennae":"X","wings":"X","pattern":"D","legs":"F"},"action":"avoid","summary":"bad-avoid","bonus":1.4000000000000008},{"rt":396,"stimulus":"\n                    <p><b>Action: <em>avoid</em></b></p>\n                    <p>This is the bee that you just saw.</p>\n                    <img src=\"bees-with-color/bee-B1DM.svg\" width=\"200\">\n                    <p><br>Your bonus pay is unchanged, and remains at $0.84.</p>\n            ","response":0,"trial_type":"html-button-response","trial_index":94,"time_elapsed":320815,"internal_node_id":"0.0-4.0-1.43","subject_id":"6146326710af7cfea335bce3","study_id":"60edd13110225f80f9f3709b","session_id":"6196c1f678eba4aac5ef9750","condition":"contingent","relevant_dimensions":["pattern","legs"],"bee_group":{"antennae":"X","wings":"X","pattern":"D","legs":"F"},"bonus":1.4000000000000008},{"rt":717.0999999996275,"stimulus":"bees-with-color/bee-A2SM.svg","response":0,"trial_type":"image-button-response","trial_index":95,"time_elapsed":321533,"internal_node_id":"0.0-4.0-0.44","subject_id":"6146326710af7cfea335bce3","study_id":"60edd13110225f80f9f3709b","session_id":"6196c1f678eba4aac5ef9750","condition":"contingent","relevant_dimensions":["pattern","legs"],"bee_group":{"antennae":"X","wings":"X","pattern":"D","legs":"F"},"action":"harvest","summary":"good-harvest","bonus":1.4000000000000008},{"rt":468.20000000018626,"stimulus":"\n                    <p><b>Action: <em>harvest</em></b></p>\n                    <p>This is the bee that you just saw.</p>\n                    <img src=\"bees-with-color/bee-A2SM.svg\" width=\"200\">\n                    <p><span class=\"greenText\"><b>Successful harvest!</b></span><br>Your pay has increased by $0.02. Your bonus pay is now $0.86.</p>\n            ","response":0,"trial_type":"html-button-response","trial_index":96,"time_elapsed":322002,"internal_node_id":"0.0-4.0-1.44","subject_id":"6146326710af7cfea335bce3","study_id":"60edd13110225f80f9f3709b","session_id":"6196c1f678eba4aac5ef9750","condition":"contingent","relevant_dimensions":["pattern","legs"],"bee_group":{"antennae":"X","wings":"X","pattern":"D","legs":"F"},"bonus":1.4000000000000008},{"rt":847.2000000001863,"stimulus":"bees-with-color/bee-B2SF.svg","response":0,"trial_type":"image-button-response","trial_index":97,"time_elapsed":322850,"internal_node_id":"0.0-4.0-0.45","subject_id":"6146326710af7cfea335bce3","study_id":"60edd13110225f80f9f3709b","session_id":"6196c1f678eba4aac5ef9750","condition":"contingent","relevant_dimensions":["pattern","legs"],"bee_group":{"antennae":"X","wings":"X","pattern":"D","legs":"F"},"action":"harvest","summary":"good-harvest","bonus":1.4000000000000008},{"rt":412.59999999962747,"stimulus":"\n                    <p><b>Action: <em>harvest</em></b></p>\n                    <p>This is the bee that you just saw.</p>\n                    <img src=\"bees-with-color/bee-B2SF.svg\" width=\"200\">\n                    <p><span class=\"greenText\"><b>Successful harvest!</b></span><br>Your pay has increased by $0.02. Your bonus pay is now $0.88.</p>\n            ","response":0,"trial_type":"html-button-response","trial_index":98,"time_elapsed":323264,"internal_node_id":"0.0-4.0-1.45","subject_id":"6146326710af7cfea335bce3","study_id":"60edd13110225f80f9f3709b","session_id":"6196c1f678eba4aac5ef9750","condition":"contingent","relevant_dimensions":["pattern","legs"],"bee_group":{"antennae":"X","wings":"X","pattern":"D","legs":"F"},"bonus":1.4000000000000008},{"rt":934.3000000007451,"stimulus":"bees-with-color/bee-A1SF.svg","response":0,"trial_type":"image-button-response","trial_index":99,"time_elapsed":324200,"internal_node_id":"0.0-4.0-0.46","subject_id":"6146326710af7cfea335bce3","study_id":"60edd13110225f80f9f3709b","session_id":"6196c1f678eba4aac5ef9750","condition":"contingent","relevant_dimensions":["pattern","legs"],"bee_group":{"antennae":"X","wings":"X","pattern":"D","legs":"F"},"action":"harvest","summary":"good-harvest","bonus":1.4000000000000008},{"rt":386.90000000037253,"stimulus":"\n                    <p><b>Action: <em>harvest</em></b></p>\n                    <p>This is the bee that you just saw.</p>\n                    <img src=\"bees-with-color/bee-A1SF.svg\" width=\"200\">\n                    <p><span class=\"greenText\"><b>Successful harvest!</b></span><br>Your pay has increased by $0.02. Your bonus pay is now $0.90.</p>\n            ","response":0,"trial_type":"html-button-response","trial_index":100,"time_elapsed":324587,"internal_node_id":"0.0-4.0-1.46","subject_id":"6146326710af7cfea335bce3","study_id":"60edd13110225f80f9f3709b","session_id":"6196c1f678eba4aac5ef9750","condition":"contingent","relevant_dimensions":["pattern","legs"],"bee_group":{"antennae":"X","wings":"X","pattern":"D","legs":"F"},"bonus":1.4000000000000008},{"rt":894.2000000001863,"stimulus":"bees-with-color/bee-A2SF.svg","response":0,"trial_type":"image-button-response","trial_index":101,"time_elapsed":325482,"internal_node_id":"0.0-4.0-0.47","subject_id":"6146326710af7cfea335bce3","study_id":"60edd13110225f80f9f3709b","session_id":"6196c1f678eba4aac5ef9750","condition":"contingent","relevant_dimensions":["pattern","legs"],"bee_group":{"antennae":"X","wings":"X","pattern":"D","legs":"F"},"action":"harvest","summary":"good-harvest","bonus":1.4000000000000008},{"rt":465.90000000037253,"stimulus":"\n                    <p><b>Action: <em>harvest</em></b></p>\n                    <p>This is the bee that you just saw.</p>\n                    <img src=\"bees-with-color/bee-A2SF.svg\" width=\"200\">\n                    <p><span class=\"greenText\"><b>Successful harvest!</b></span><br>Your pay has increased by $0.02. Your bonus pay is now $0.92.</p>\n            ","response":0,"trial_type":"html-button-response","trial_index":102,"time_elapsed":325949,"internal_node_id":"0.0-4.0-1.47","subject_id":"6146326710af7cfea335bce3","study_id":"60edd13110225f80f9f3709b","session_id":"6196c1f678eba4aac5ef9750","condition":"contingent","relevant_dimensions":["pattern","legs"],"bee_group":{"antennae":"X","wings":"X","pattern":"D","legs":"F"},"bonus":1.4000000000000008},{"rt":1358.1000000005588,"stimulus":"bees-with-color/bee-A2SM.svg","response":0,"trial_type":"image-button-response","trial_index":103,"time_elapsed":327308,"internal_node_id":"0.0-4.0-0.48","subject_id":"6146326710af7cfea335bce3","study_id":"60edd13110225f80f9f3709b","session_id":"6196c1f678eba4aac5ef9750","condition":"contingent","relevant_dimensions":["pattern","legs"],"bee_group":{"antennae":"X","wings":"X","pattern":"D","legs":"F"},"action":"harvest","summary":"good-harvest","bonus":1.4000000000000008},{"rt":488,"stimulus":"\n                    <p><b>Action: <em>harvest</em></b></p>\n                    <p>This is the bee that you just saw.</p>\n                    <img src=\"bees-with-color/bee-A2SM.svg\" width=\"200\">\n                    <p><span class=\"greenText\"><b>Successful harvest!</b></span><br>Your pay has increased by $0.02. Your bonus pay is now $0.94.</p>\n            ","response":0,"trial_type":"html-button-response","trial_index":104,"time_elapsed":327798,"internal_node_id":"0.0-4.0-1.48","subject_id":"6146326710af7cfea335bce3","study_id":"60edd13110225f80f9f3709b","session_id":"6196c1f678eba4aac5ef9750","condition":"contingent","relevant_dimensions":["pattern","legs"],"bee_group":{"antennae":"X","wings":"X","pattern":"D","legs":"F"},"bonus":1.4000000000000008},{"rt":992.0999999996275,"stimulus":"bees-with-color/bee-A2DM.svg","response":1,"trial_type":"image-button-response","trial_index":105,"time_elapsed":328791,"internal_node_id":"0.0-4.0-0.49","subject_id":"6146326710af7cfea335bce3","study_id":"60edd13110225f80f9f3709b","session_id":"6196c1f678eba4aac5ef9750","condition":"contingent","relevant_dimensions":["pattern","legs"],"bee_group":{"antennae":"X","wings":"X","pattern":"D","legs":"F"},"action":"avoid","summary":"bad-avoid","bonus":1.4000000000000008},{"rt":376.90000000037253,"stimulus":"\n                    <p><b>Action: <em>avoid</em></b></p>\n                    <p>This is the bee that you just saw.</p>\n                    <img src=\"bees-with-color/bee-A2DM.svg\" width=\"200\">\n                    <p><br>Your bonus pay is unchanged, and remains at $0.94.</p>\n            ","response":0,"trial_type":"html-button-response","trial_index":106,"time_elapsed":329169,"internal_node_id":"0.0-4.0-1.49","subject_id":"6146326710af7cfea335bce3","study_id":"60edd13110225f80f9f3709b","session_id":"6196c1f678eba4aac5ef9750","condition":"contingent","relevant_dimensions":["pattern","legs"],"bee_group":{"antennae":"X","wings":"X","pattern":"D","legs":"F"},"bonus":1.4000000000000008},{"rt":869.8999999994412,"stimulus":"bees-with-color/bee-B1SF.svg","response":0,"trial_type":"image-button-response","trial_index":107,"time_elapsed":330040,"internal_node_id":"0.0-4.0-0.50","subject_id":"6146326710af7cfea335bce3","study_id":"60edd13110225f80f9f3709b","session_id":"6196c1f678eba4aac5ef9750","condition":"contingent","relevant_dimensions":["pattern","legs"],"bee_group":{"antennae":"X","wings":"X","pattern":"D","legs":"F"},"action":"harvest","summary":"good-harvest","bonus":1.4000000000000008},{"rt":530.5999999996275,"stimulus":"\n                    <p><b>Action: <em>harvest</em></b></p>\n                    <p>This is the bee that you just saw.</p>\n                    <img src=\"bees-with-color/bee-B1SF.svg\" width=\"200\">\n                    <p><span class=\"greenText\"><b>Successful harvest!</b></span><br>Your pay has increased by $0.02. Your bonus pay is now $0.96.</p>\n            ","response":0,"trial_type":"html-button-response","trial_index":108,"time_elapsed":330572,"internal_node_id":"0.0-4.0-1.50","subject_id":"6146326710af7cfea335bce3","study_id":"60edd13110225f80f9f3709b","session_id":"6196c1f678eba4aac5ef9750","condition":"contingent","relevant_dimensions":["pattern","legs"],"bee_group":{"antennae":"X","wings":"X","pattern":"D","legs":"F"},"bonus":1.4000000000000008},{"rt":731.7000000001863,"stimulus":"bees-with-color/bee-A2DF.svg","response":1,"trial_type":"image-button-response","trial_index":109,"time_elapsed":331304,"internal_node_id":"0.0-4.0-0.51","subject_id":"6146326710af7cfea335bce3","study_id":"60edd13110225f80f9f3709b","session_id":"6196c1f678eba4aac5ef9750","condition":"contingent","relevant_dimensions":["pattern","legs"],"bee_group":{"antennae":"X","wings":"X","pattern":"D","legs":"F"},"action":"avoid","summary":"good-avoid","bonus":1.4000000000000008},{"rt":427.20000000018626,"stimulus":"\n                    <p><b>Action: <em>avoid</em></b></p>\n                    <p>This is the bee that you just saw.</p>\n                    <img src=\"bees-with-color/bee-A2DF.svg\" width=\"200\">\n                    <p><br>Your bonus pay is unchanged, and remains at $0.96.</p>\n            ","response":0,"trial_type":"html-button-response","trial_index":110,"time_elapsed":331733,"internal_node_id":"0.0-4.0-1.51","subject_id":"6146326710af7cfea335bce3","study_id":"60edd13110225f80f9f3709b","session_id":"6196c1f678eba4aac5ef9750","condition":"contingent","relevant_dimensions":["pattern","legs"],"bee_group":{"antennae":"X","wings":"X","pattern":"D","legs":"F"},"bonus":1.4000000000000008},{"rt":1136.9000000003725,"stimulus":"bees-with-color/bee-A1DF.svg","response":1,"trial_type":"image-button-response","trial_index":111,"time_elapsed":332871,"internal_node_id":"0.0-4.0-0.52","subject_id":"6146326710af7cfea335bce3","study_id":"60edd13110225f80f9f3709b","session_id":"6196c1f678eba4aac5ef9750","condition":"contingent","relevant_dimensions":["pattern","legs"],"bee_group":{"antennae":"X","wings":"X","pattern":"D","legs":"F"},"action":"avoid","summary":"good-avoid","bonus":1.4000000000000008},{"rt":395.70000000018626,"stimulus":"\n                    <p><b>Action: <em>avoid</em></b></p>\n                    <p>This is the bee that you just saw.</p>\n                    <img src=\"bees-with-color/bee-A1DF.svg\" width=\"200\">\n                    <p><br>Your bonus pay is unchanged, and remains at $0.96.</p>\n            ","response":0,"trial_type":"html-button-response","trial_index":112,"time_elapsed":333267,"internal_node_id":"0.0-4.0-1.52","subject_id":"6146326710af7cfea335bce3","study_id":"60edd13110225f80f9f3709b","session_id":"6196c1f678eba4aac5ef9750","condition":"contingent","relevant_dimensions":["pattern","legs"],"bee_group":{"antennae":"X","wings":"X","pattern":"D","legs":"F"},"bonus":1.4000000000000008},{"rt":1443.199999999255,"stimulus":"bees-with-color/bee-A1SF.svg","response":0,"trial_type":"image-button-response","trial_index":113,"time_elapsed":334712,"internal_node_id":"0.0-4.0-0.53","subject_id":"6146326710af7cfea335bce3","study_id":"60edd13110225f80f9f3709b","session_id":"6196c1f678eba4aac5ef9750","condition":"contingent","relevant_dimensions":["pattern","legs"],"bee_group":{"antennae":"X","wings":"X","pattern":"D","legs":"F"},"action":"harvest","summary":"good-harvest","bonus":1.4000000000000008},{"rt":375.70000000018626,"stimulus":"\n                    <p><b>Action: <em>harvest</em></b></p>\n                    <p>This is the bee that you just saw.</p>\n                    <img src=\"bees-with-color/bee-A1SF.svg\" width=\"200\">\n                    <p><span class=\"greenText\"><b>Successful harvest!</b></span><br>Your pay has increased by $0.02. Your bonus pay is now $0.98.</p>\n            ","response":0,"trial_type":"html-button-response","trial_index":114,"time_elapsed":335088,"internal_node_id":"0.0-4.0-1.53","subject_id":"6146326710af7cfea335bce3","study_id":"60edd13110225f80f9f3709b","session_id":"6196c1f678eba4aac5ef9750","condition":"contingent","relevant_dimensions":["pattern","legs"],"bee_group":{"antennae":"X","wings":"X","pattern":"D","legs":"F"},"bonus":1.4000000000000008},{"rt":770.2000000001863,"stimulus":"bees-with-color/bee-A1DM.svg","response":1,"trial_type":"image-button-response","trial_index":115,"time_elapsed":335859,"internal_node_id":"0.0-4.0-0.54","subject_id":"6146326710af7cfea335bce3","study_id":"60edd13110225f80f9f3709b","session_id":"6196c1f678eba4aac5ef9750","condition":"contingent","relevant_dimensions":["pattern","legs"],"bee_group":{"antennae":"X","wings":"X","pattern":"D","legs":"F"},"action":"avoid","summary":"bad-avoid","bonus":1.4000000000000008},{"rt":370.1000000005588,"stimulus":"\n                    <p><b>Action: <em>avoid</em></b></p>\n                    <p>This is the bee that you just saw.</p>\n                    <img src=\"bees-with-color/bee-A1DM.svg\" width=\"200\">\n                    <p><br>Your bonus pay is unchanged, and remains at $0.98.</p>\n            ","response":0,"trial_type":"html-button-response","trial_index":116,"time_elapsed":336230,"internal_node_id":"0.0-4.0-1.54","subject_id":"6146326710af7cfea335bce3","study_id":"60edd13110225f80f9f3709b","session_id":"6196c1f678eba4aac5ef9750","condition":"contingent","relevant_dimensions":["pattern","legs"],"bee_group":{"antennae":"X","wings":"X","pattern":"D","legs":"F"},"bonus":1.4000000000000008},{"rt":731.1000000005588,"stimulus":"bees-with-color/bee-B1DM.svg","response":1,"trial_type":"image-button-response","trial_index":117,"time_elapsed":336963,"internal_node_id":"0.0-4.0-0.55","subject_id":"6146326710af7cfea335bce3","study_id":"60edd13110225f80f9f3709b","session_id":"6196c1f678eba4aac5ef9750","condition":"contingent","relevant_dimensions":["pattern","legs"],"bee_group":{"antennae":"X","wings":"X","pattern":"D","legs":"F"},"action":"avoid","summary":"bad-avoid","bonus":1.4000000000000008},{"rt":382,"stimulus":"\n                    <p><b>Action: <em>avoid</em></b></p>\n                    <p>This is the bee that you just saw.</p>\n                    <img src=\"bees-with-color/bee-B1DM.svg\" width=\"200\">\n                    <p><br>Your bonus pay is unchanged, and remains at $0.98.</p>\n            ","response":0,"trial_type":"html-button-response","trial_index":118,"time_elapsed":337345,"internal_node_id":"0.0-4.0-1.55","subject_id":"6146326710af7cfea335bce3","study_id":"60edd13110225f80f9f3709b","session_id":"6196c1f678eba4aac5ef9750","condition":"contingent","relevant_dimensions":["pattern","legs"],"bee_group":{"antennae":"X","wings":"X","pattern":"D","legs":"F"},"bonus":1.4000000000000008},{"rt":693.2000000001863,"stimulus":"bees-with-color/bee-B2SF.svg","response":0,"trial_type":"image-button-response","trial_index":119,"time_elapsed":338039,"internal_node_id":"0.0-4.0-0.56","subject_id":"6146326710af7cfea335bce3","study_id":"60edd13110225f80f9f3709b","session_id":"6196c1f678eba4aac5ef9750","condition":"contingent","relevant_dimensions":["pattern","legs"],"bee_group":{"antennae":"X","wings":"X","pattern":"D","legs":"F"},"action":"harvest","summary":"good-harvest","bonus":1.4000000000000008},{"rt":412.70000000018626,"stimulus":"\n                    <p><b>Action: <em>harvest</em></b></p>\n                    <p>This is the bee that you just saw.</p>\n                    <img src=\"bees-with-color/bee-B2SF.svg\" width=\"200\">\n                    <p><span class=\"greenText\"><b>Successful harvest!</b></span><br>Your pay has increased by $0.02. Your bonus pay is now $1.00.</p>\n            ","response":0,"trial_type":"html-button-response","trial_index":120,"time_elapsed":338453,"internal_node_id":"0.0-4.0-1.56","subject_id":"6146326710af7cfea335bce3","study_id":"60edd13110225f80f9f3709b","session_id":"6196c1f678eba4aac5ef9750","condition":"contingent","relevant_dimensions":["pattern","legs"],"bee_group":{"antennae":"X","wings":"X","pattern":"D","legs":"F"},"bonus":1.4000000000000008},{"rt":966.5,"stimulus":"bees-with-color/bee-B2DF.svg","response":1,"trial_type":"image-button-response","trial_index":121,"time_elapsed":339420,"internal_node_id":"0.0-4.0-0.57","subject_id":"6146326710af7cfea335bce3","study_id":"60edd13110225f80f9f3709b","session_id":"6196c1f678eba4aac5ef9750","condition":"contingent","relevant_dimensions":["pattern","legs"],"bee_group":{"antennae":"X","wings":"X","pattern":"D","legs":"F"},"action":"avoid","summary":"good-avoid","bonus":1.4000000000000008},{"rt":404.09999999962747,"stimulus":"\n                    <p><b>Action: <em>avoid</em></b></p>\n                    <p>This is the bee that you just saw.</p>\n                    <img src=\"bees-with-color/bee-B2DF.svg\" width=\"200\">\n                    <p><br>Your bonus pay is unchanged, and remains at $1.00.</p>\n            ","response":0,"trial_type":"html-button-response","trial_index":122,"time_elapsed":339826,"internal_node_id":"0.0-4.0-1.57","subject_id":"6146326710af7cfea335bce3","study_id":"60edd13110225f80f9f3709b","session_id":"6196c1f678eba4aac5ef9750","condition":"contingent","relevant_dimensions":["pattern","legs"],"bee_group":{"antennae":"X","wings":"X","pattern":"D","legs":"F"},"bonus":1.4000000000000008},{"rt":801.1000000005588,"stimulus":"bees-with-color/bee-A2SF.svg","response":0,"trial_type":"image-button-response","trial_index":123,"time_elapsed":340628,"internal_node_id":"0.0-4.0-0.58","subject_id":"6146326710af7cfea335bce3","study_id":"60edd13110225f80f9f3709b","session_id":"6196c1f678eba4aac5ef9750","condition":"contingent","relevant_dimensions":["pattern","legs"],"bee_group":{"antennae":"X","wings":"X","pattern":"D","legs":"F"},"action":"harvest","summary":"good-harvest","bonus":1.4000000000000008},{"rt":382.90000000037253,"stimulus":"\n                    <p><b>Action: <em>harvest</em></b></p>\n                    <p>This is the bee that you just saw.</p>\n                    <img src=\"bees-with-color/bee-A2SF.svg\" width=\"200\">\n                    <p><span class=\"greenText\"><b>Successful harvest!</b></span><br>Your pay has increased by $0.02. Your bonus pay is now $1.02.</p>\n            ","response":0,"trial_type":"html-button-response","trial_index":124,"time_elapsed":341011,"internal_node_id":"0.0-4.0-1.58","subject_id":"6146326710af7cfea335bce3","study_id":"60edd13110225f80f9f3709b","session_id":"6196c1f678eba4aac5ef9750","condition":"contingent","relevant_dimensions":["pattern","legs"],"bee_group":{"antennae":"X","wings":"X","pattern":"D","legs":"F"},"bonus":1.4000000000000008},{"rt":742,"stimulus":"bees-with-color/bee-B2DM.svg","response":1,"trial_type":"image-button-response","trial_index":125,"time_elapsed":341754,"internal_node_id":"0.0-4.0-0.59","subject_id":"6146326710af7cfea335bce3","study_id":"60edd13110225f80f9f3709b","session_id":"6196c1f678eba4aac5ef9750","condition":"contingent","relevant_dimensions":["pattern","legs"],"bee_group":{"antennae":"X","wings":"X","pattern":"D","legs":"F"},"action":"avoid","summary":"bad-avoid","bonus":1.4000000000000008},{"rt":391.1000000005588,"stimulus":"\n                    <p><b>Action: <em>avoid</em></b></p>\n                    <p>This is the bee that you just saw.</p>\n                    <img src=\"bees-with-color/bee-B2DM.svg\" width=\"200\">\n                    <p><br>Your bonus pay is unchanged, and remains at $1.02.</p>\n            ","response":0,"trial_type":"html-button-response","trial_index":126,"time_elapsed":342146,"internal_node_id":"0.0-4.0-1.59","subject_id":"6146326710af7cfea335bce3","study_id":"60edd13110225f80f9f3709b","session_id":"6196c1f678eba4aac5ef9750","condition":"contingent","relevant_dimensions":["pattern","legs"],"bee_group":{"antennae":"X","wings":"X","pattern":"D","legs":"F"},"bonus":1.4000000000000008},{"rt":717.0999999996275,"stimulus":"bees-with-color/bee-B1SM.svg","response":0,"trial_type":"image-button-response","trial_index":127,"time_elapsed":342864,"internal_node_id":"0.0-4.0-0.60","subject_id":"6146326710af7cfea335bce3","study_id":"60edd13110225f80f9f3709b","session_id":"6196c1f678eba4aac5ef9750","condition":"contingent","relevant_dimensions":["pattern","legs"],"bee_group":{"antennae":"X","wings":"X","pattern":"D","legs":"F"},"action":"harvest","summary":"good-harvest","bonus":1.4000000000000008},{"rt":765.9000000003725,"stimulus":"\n                    <p><b>Action: <em>harvest</em></b></p>\n                    <p>This is the bee that you just saw.</p>\n                    <img src=\"bees-with-color/bee-B1SM.svg\" width=\"200\">\n                    <p><span class=\"greenText\"><b>Successful harvest!</b></span><br>Your pay has increased by $0.02. Your bonus pay is now $1.04.</p>\n            ","response":0,"trial_type":"html-button-response","trial_index":128,"time_elapsed":343631,"internal_node_id":"0.0-4.0-1.60","subject_id":"6146326710af7cfea335bce3","study_id":"60edd13110225f80f9f3709b","session_id":"6196c1f678eba4aac5ef9750","condition":"contingent","relevant_dimensions":["pattern","legs"],"bee_group":{"antennae":"X","wings":"X","pattern":"D","legs":"F"},"bonus":1.4000000000000008},{"rt":806.2999999998137,"stimulus":"bees-with-color/bee-A1SM.svg","response":0,"trial_type":"image-button-response","trial_index":129,"time_elapsed":344438,"internal_node_id":"0.0-4.0-0.61","subject_id":"6146326710af7cfea335bce3","study_id":"60edd13110225f80f9f3709b","session_id":"6196c1f678eba4aac5ef9750","condition":"contingent","relevant_dimensions":["pattern","legs"],"bee_group":{"antennae":"X","wings":"X","pattern":"D","legs":"F"},"action":"harvest","summary":"good-harvest","bonus":1.4000000000000008},{"rt":469.29999999981374,"stimulus":"\n                    <p><b>Action: <em>harvest</em></b></p>\n                    <p>This is the bee that you just saw.</p>\n                    <img src=\"bees-with-color/bee-A1SM.svg\" width=\"200\">\n                    <p><span class=\"greenText\"><b>Successful harvest!</b></span><br>Your pay has increased by $0.02. Your bonus pay is now $1.06.</p>\n            ","response":0,"trial_type":"html-button-response","trial_index":130,"time_elapsed":344908,"internal_node_id":"0.0-4.0-1.61","subject_id":"6146326710af7cfea335bce3","study_id":"60edd13110225f80f9f3709b","session_id":"6196c1f678eba4aac5ef9750","condition":"contingent","relevant_dimensions":["pattern","legs"],"bee_group":{"antennae":"X","wings":"X","pattern":"D","legs":"F"},"bonus":1.4000000000000008},{"rt":734.1000000005588,"stimulus":"bees-with-color/bee-B1DF.svg","response":1,"trial_type":"image-button-response","trial_index":131,"time_elapsed":345644,"internal_node_id":"0.0-4.0-0.62","subject_id":"6146326710af7cfea335bce3","study_id":"60edd13110225f80f9f3709b","session_id":"6196c1f678eba4aac5ef9750","condition":"contingent","relevant_dimensions":["pattern","legs"],"bee_group":{"antennae":"X","wings":"X","pattern":"D","legs":"F"},"action":"avoid","summary":"good-avoid","bonus":1.4000000000000008},{"rt":394.90000000037253,"stimulus":"\n                    <p><b>Action: <em>avoid</em></b></p>\n                    <p>This is the bee that you just saw.</p>\n                    <img src=\"bees-with-color/bee-B1DF.svg\" width=\"200\">\n                    <p><br>Your bonus pay is unchanged, and remains at $1.06.</p>\n            ","response":0,"trial_type":"html-button-response","trial_index":132,"time_elapsed":346039,"internal_node_id":"0.0-4.0-1.62","subject_id":"6146326710af7cfea335bce3","study_id":"60edd13110225f80f9f3709b","session_id":"6196c1f678eba4aac5ef9750","condition":"contingent","relevant_dimensions":["pattern","legs"],"bee_group":{"antennae":"X","wings":"X","pattern":"D","legs":"F"},"bonus":1.4000000000000008},{"rt":687,"stimulus":"bees-with-color/bee-B2SM.svg","response":0,"trial_type":"image-button-response","trial_index":133,"time_elapsed":346727,"internal_node_id":"0.0-4.0-0.63","subject_id":"6146326710af7cfea335bce3","study_id":"60edd13110225f80f9f3709b","session_id":"6196c1f678eba4aac5ef9750","condition":"contingent","relevant_dimensions":["pattern","legs"],"bee_group":{"antennae":"X","wings":"X","pattern":"D","legs":"F"},"action":"harvest","summary":"good-harvest","bonus":1.4000000000000008},{"rt":391.90000000037253,"stimulus":"\n                    <p><b>Action: <em>harvest</em></b></p>\n                    <p>This is the bee that you just saw.</p>\n                    <img src=\"bees-with-color/bee-B2SM.svg\" width=\"200\">\n                    <p><span class=\"greenText\"><b>Successful harvest!</b></span><br>Your pay has increased by $0.02. Your bonus pay is now $1.08.</p>\n            ","response":0,"trial_type":"html-button-response","trial_index":134,"time_elapsed":347121,"internal_node_id":"0.0-4.0-1.63","subject_id":"6146326710af7cfea335bce3","study_id":"60edd13110225f80f9f3709b","session_id":"6196c1f678eba4aac5ef9750","condition":"contingent","relevant_dimensions":["pattern","legs"],"bee_group":{"antennae":"X","wings":"X","pattern":"D","legs":"F"},"bonus":1.4000000000000008},{"rt":9339.599999999627,"stimulus":"You have completed the first part of this experiment.<br><br>You will now begin a shorter second part, in which you will receive no feedback.<br>The same rules regarding bonus pay apply.<br><br>Press any key to begin.","response":" ","trial_type":"html-keyboard-response","trial_index":135,"time_elapsed":356461,"internal_node_id":"0.0-5.0","subject_id":"6146326710af7cfea335bce3","study_id":"60edd13110225f80f9f3709b","session_id":"6196c1f678eba4aac5ef9750","condition":"contingent","relevant_dimensions":["pattern","legs"],"bee_group":{"antennae":"X","wings":"X","pattern":"D","legs":"F"},"bonus":1.4000000000000008},{"rt":2362.2000000001863,"stimulus":"bees-with-color/bee-B1DM.svg","response":1,"trial_type":"image-button-response","trial_index":136,"time_elapsed":358830,"internal_node_id":"0.0-6.0-0.0","subject_id":"6146326710af7cfea335bce3","study_id":"60edd13110225f80f9f3709b","session_id":"6196c1f678eba4aac5ef9750","condition":"contingent","relevant_dimensions":["pattern","legs"],"bee_group":{"antennae":"X","wings":"X","pattern":"D","legs":"F"},"bonus":1.4000000000000008},{"rt":1213.6000000005588,"stimulus":"bees-with-color/bee-A1SF.svg","response":0,"trial_type":"image-button-response","trial_index":137,"time_elapsed":360045,"internal_node_id":"0.0-6.0-0.1","subject_id":"6146326710af7cfea335bce3","study_id":"60edd13110225f80f9f3709b","session_id":"6196c1f678eba4aac5ef9750","condition":"contingent","relevant_dimensions":["pattern","legs"],"bee_group":{"antennae":"X","wings":"X","pattern":"D","legs":"F"},"bonus":1.4000000000000008},{"rt":2483.600000000559,"stimulus":"bees-with-color/bee-A1DM.svg","response":1,"trial_type":"image-button-response","trial_index":138,"time_elapsed":362530,"internal_node_id":"0.0-6.0-0.2","subject_id":"6146326710af7cfea335bce3","study_id":"60edd13110225f80f9f3709b","session_id":"6196c1f678eba4aac5ef9750","condition":"contingent","relevant_dimensions":["pattern","legs"],"bee_group":{"antennae":"X","wings":"X","pattern":"D","legs":"F"},"bonus":1.4000000000000008},{"rt":1147.7000000001863,"stimulus":"bees-with-color/bee-B1SM.svg","response":0,"trial_type":"image-button-response","trial_index":139,"time_elapsed":363679,"internal_node_id":"0.0-6.0-0.3","subject_id":"6146326710af7cfea335bce3","study_id":"60edd13110225f80f9f3709b","session_id":"6196c1f678eba4aac5ef9750","condition":"contingent","relevant_dimensions":["pattern","legs"],"bee_group":{"antennae":"X","wings":"X","pattern":"D","legs":"F"},"bonus":1.4000000000000008},{"rt":1075.4000000003725,"stimulus":"bees-with-color/bee-A2SF.svg","response":0,"trial_type":"image-button-response","trial_index":140,"time_elapsed":364756,"internal_node_id":"0.0-6.0-0.4","subject_id":"6146326710af7cfea335bce3","study_id":"60edd13110225f80f9f3709b","session_id":"6196c1f678eba4aac5ef9750","condition":"contingent","relevant_dimensions":["pattern","legs"],"bee_group":{"antennae":"X","wings":"X","pattern":"D","legs":"F"},"bonus":1.4000000000000008},{"rt":1058.2999999998137,"stimulus":"bees-with-color/bee-A2SM.svg","response":0,"trial_type":"image-button-response","trial_index":141,"time_elapsed":365816,"internal_node_id":"0.0-6.0-0.5","subject_id":"6146326710af7cfea335bce3","study_id":"60edd13110225f80f9f3709b","session_id":"6196c1f678eba4aac5ef9750","condition":"contingent","relevant_dimensions":["pattern","legs"],"bee_group":{"antennae":"X","wings":"X","pattern":"D","legs":"F"},"bonus":1.4000000000000008},{"rt":860.5,"stimulus":"bees-with-color/bee-A2DF.svg","response":1,"trial_type":"image-button-response","trial_index":142,"time_elapsed":366678,"internal_node_id":"0.0-6.0-0.6","subject_id":"6146326710af7cfea335bce3","study_id":"60edd13110225f80f9f3709b","session_id":"6196c1f678eba4aac5ef9750","condition":"contingent","relevant_dimensions":["pattern","legs"],"bee_group":{"antennae":"X","wings":"X","pattern":"D","legs":"F"},"bonus":1.4000000000000008},{"rt":646.6000000005588,"stimulus":"bees-with-color/bee-B2DF.svg","response":1,"trial_type":"image-button-response","trial_index":143,"time_elapsed":367326,"internal_node_id":"0.0-6.0-0.7","subject_id":"6146326710af7cfea335bce3","study_id":"60edd13110225f80f9f3709b","session_id":"6196c1f678eba4aac5ef9750","condition":"contingent","relevant_dimensions":["pattern","legs"],"bee_group":{"antennae":"X","wings":"X","pattern":"D","legs":"F"},"bonus":1.4000000000000008},{"rt":726.5,"stimulus":"bees-with-color/bee-B1SF.svg","response":0,"trial_type":"image-button-response","trial_index":144,"time_elapsed":368054,"internal_node_id":"0.0-6.0-0.8","subject_id":"6146326710af7cfea335bce3","study_id":"60edd13110225f80f9f3709b","session_id":"6196c1f678eba4aac5ef9750","condition":"contingent","relevant_dimensions":["pattern","legs"],"bee_group":{"antennae":"X","wings":"X","pattern":"D","legs":"F"},"bonus":1.4000000000000008},{"rt":707.8000000007451,"stimulus":"bees-with-color/bee-B2SF.svg","response":0,"trial_type":"image-button-response","trial_index":145,"time_elapsed":368763,"internal_node_id":"0.0-6.0-0.9","subject_id":"6146326710af7cfea335bce3","study_id":"60edd13110225f80f9f3709b","session_id":"6196c1f678eba4aac5ef9750","condition":"contingent","relevant_dimensions":["pattern","legs"],"bee_group":{"antennae":"X","wings":"X","pattern":"D","legs":"F"},"bonus":1.4000000000000008},{"rt":968.8000000007451,"stimulus":"bees-with-color/bee-A1SM.svg","response":0,"trial_type":"image-button-response","trial_index":146,"time_elapsed":369733,"internal_node_id":"0.0-6.0-0.10","subject_id":"6146326710af7cfea335bce3","study_id":"60edd13110225f80f9f3709b","session_id":"6196c1f678eba4aac5ef9750","condition":"contingent","relevant_dimensions":["pattern","legs"],"bee_group":{"antennae":"X","wings":"X","pattern":"D","legs":"F"},"bonus":1.4000000000000008},{"rt":1342.2000000001863,"stimulus":"bees-with-color/bee-B1DF.svg","response":1,"trial_type":"image-button-response","trial_index":147,"time_elapsed":371077,"internal_node_id":"0.0-6.0-0.11","subject_id":"6146326710af7cfea335bce3","study_id":"60edd13110225f80f9f3709b","session_id":"6196c1f678eba4aac5ef9750","condition":"contingent","relevant_dimensions":["pattern","legs"],"bee_group":{"antennae":"X","wings":"X","pattern":"D","legs":"F"},"bonus":1.4000000000000008},{"rt":659.7999999998137,"stimulus":"bees-with-color/bee-B2DM.svg","response":1,"trial_type":"image-button-response","trial_index":148,"time_elapsed":371738,"internal_node_id":"0.0-6.0-0.12","subject_id":"6146326710af7cfea335bce3","study_id":"60edd13110225f80f9f3709b","session_id":"6196c1f678eba4aac5ef9750","condition":"contingent","relevant_dimensions":["pattern","legs"],"bee_group":{"antennae":"X","wings":"X","pattern":"D","legs":"F"},"bonus":1.4000000000000008},{"rt":760.5999999996275,"stimulus":"bees-with-color/bee-A2DM.svg","response":1,"trial_type":"image-button-response","trial_index":149,"time_elapsed":372500,"internal_node_id":"0.0-6.0-0.13","subject_id":"6146326710af7cfea335bce3","study_id":"60edd13110225f80f9f3709b","session_id":"6196c1f678eba4aac5ef9750","condition":"contingent","relevant_dimensions":["pattern","legs"],"bee_group":{"antennae":"X","wings":"X","pattern":"D","legs":"F"},"bonus":1.4000000000000008},{"rt":685.5,"stimulus":"bees-with-color/bee-A1DF.svg","response":1,"trial_type":"image-button-response","trial_index":150,"time_elapsed":373187,"internal_node_id":"0.0-6.0-0.14","subject_id":"6146326710af7cfea335bce3","study_id":"60edd13110225f80f9f3709b","session_id":"6196c1f678eba4aac5ef9750","condition":"contingent","relevant_dimensions":["pattern","legs"],"bee_group":{"antennae":"X","wings":"X","pattern":"D","legs":"F"},"bonus":1.4000000000000008},{"rt":818.3000000007451,"stimulus":"bees-with-color/bee-B2SM.svg","response":0,"trial_type":"image-button-response","trial_index":151,"time_elapsed":374007,"internal_node_id":"0.0-6.0-0.15","subject_id":"6146326710af7cfea335bce3","study_id":"60edd13110225f80f9f3709b","session_id":"6196c1f678eba4aac5ef9750","condition":"contingent","relevant_dimensions":["pattern","legs"],"bee_group":{"antennae":"X","wings":"X","pattern":"D","legs":"F"},"bonus":1.4000000000000008},{"rt":823.9000000003725,"stimulus":"bees-with-color/bee-B2SM.svg","response":0,"trial_type":"image-button-response","trial_index":152,"time_elapsed":374832,"internal_node_id":"0.0-6.0-0.16","subject_id":"6146326710af7cfea335bce3","study_id":"60edd13110225f80f9f3709b","session_id":"6196c1f678eba4aac5ef9750","condition":"contingent","relevant_dimensions":["pattern","legs"],"bee_group":{"antennae":"X","wings":"X","pattern":"D","legs":"F"},"bonus":1.4000000000000008},{"rt":718,"stimulus":"bees-with-color/bee-B2DF.svg","response":1,"trial_type":"image-button-response","trial_index":153,"time_elapsed":375551,"internal_node_id":"0.0-6.0-0.17","subject_id":"6146326710af7cfea335bce3","study_id":"60edd13110225f80f9f3709b","session_id":"6196c1f678eba4aac5ef9750","condition":"contingent","relevant_dimensions":["pattern","legs"],"bee_group":{"antennae":"X","wings":"X","pattern":"D","legs":"F"},"bonus":1.4000000000000008},{"rt":1057.7000000001863,"stimulus":"bees-with-color/bee-A2DM.svg","response":1,"trial_type":"image-button-response","trial_index":154,"time_elapsed":376610,"internal_node_id":"0.0-6.0-0.18","subject_id":"6146326710af7cfea335bce3","study_id":"60edd13110225f80f9f3709b","session_id":"6196c1f678eba4aac5ef9750","condition":"contingent","relevant_dimensions":["pattern","legs"],"bee_group":{"antennae":"X","wings":"X","pattern":"D","legs":"F"},"bonus":1.4000000000000008},{"rt":614.7999999998137,"stimulus":"bees-with-color/bee-A2DF.svg","response":1,"trial_type":"image-button-response","trial_index":155,"time_elapsed":377226,"internal_node_id":"0.0-6.0-0.19","subject_id":"6146326710af7cfea335bce3","study_id":"60edd13110225f80f9f3709b","session_id":"6196c1f678eba4aac5ef9750","condition":"contingent","relevant_dimensions":["pattern","legs"],"bee_group":{"antennae":"X","wings":"X","pattern":"D","legs":"F"},"bonus":1.4000000000000008},{"rt":1041.5,"stimulus":"bees-with-color/bee-A1DM.svg","response":1,"trial_type":"image-button-response","trial_index":156,"time_elapsed":378268,"internal_node_id":"0.0-6.0-0.20","subject_id":"6146326710af7cfea335bce3","study_id":"60edd13110225f80f9f3709b","session_id":"6196c1f678eba4aac5ef9750","condition":"contingent","relevant_dimensions":["pattern","legs"],"bee_group":{"antennae":"X","wings":"X","pattern":"D","legs":"F"},"bonus":1.4000000000000008},{"rt":730.6999999992549,"stimulus":"bees-with-color/bee-A2SF.svg","response":0,"trial_type":"image-button-response","trial_index":157,"time_elapsed":379000,"internal_node_id":"0.0-6.0-0.21","subject_id":"6146326710af7cfea335bce3","study_id":"60edd13110225f80f9f3709b","session_id":"6196c1f678eba4aac5ef9750","condition":"contingent","relevant_dimensions":["pattern","legs"],"bee_group":{"antennae":"X","wings":"X","pattern":"D","legs":"F"},"bonus":1.4000000000000008},{"rt":1409.7000000001863,"stimulus":"bees-with-color/bee-A2SM.svg","response":0,"trial_type":"image-button-response","trial_index":158,"time_elapsed":380411,"internal_node_id":"0.0-6.0-0.22","subject_id":"6146326710af7cfea335bce3","study_id":"60edd13110225f80f9f3709b","session_id":"6196c1f678eba4aac5ef9750","condition":"contingent","relevant_dimensions":["pattern","legs"],"bee_group":{"antennae":"X","wings":"X","pattern":"D","legs":"F"},"bonus":1.4000000000000008},{"rt":665.7000000001863,"stimulus":"bees-with-color/bee-B1SM.svg","response":0,"trial_type":"image-button-response","trial_index":159,"time_elapsed":381078,"internal_node_id":"0.0-6.0-0.23","subject_id":"6146326710af7cfea335bce3","study_id":"60edd13110225f80f9f3709b","session_id":"6196c1f678eba4aac5ef9750","condition":"contingent","relevant_dimensions":["pattern","legs"],"bee_group":{"antennae":"X","wings":"X","pattern":"D","legs":"F"},"bonus":1.4000000000000008},{"rt":852.7000000001863,"stimulus":"bees-with-color/bee-B2SF.svg","response":0,"trial_type":"image-button-response","trial_index":160,"time_elapsed":381932,"internal_node_id":"0.0-6.0-0.24","subject_id":"6146326710af7cfea335bce3","study_id":"60edd13110225f80f9f3709b","session_id":"6196c1f678eba4aac5ef9750","condition":"contingent","relevant_dimensions":["pattern","legs"],"bee_group":{"antennae":"X","wings":"X","pattern":"D","legs":"F"},"bonus":1.4000000000000008},{"rt":717.8999999994412,"stimulus":"bees-with-color/bee-B1DF.svg","response":1,"trial_type":"image-button-response","trial_index":161,"time_elapsed":382651,"internal_node_id":"0.0-6.0-0.25","subject_id":"6146326710af7cfea335bce3","study_id":"60edd13110225f80f9f3709b","session_id":"6196c1f678eba4aac5ef9750","condition":"contingent","relevant_dimensions":["pattern","legs"],"bee_group":{"antennae":"X","wings":"X","pattern":"D","legs":"F"},"bonus":1.4000000000000008},{"rt":833.5,"stimulus":"bees-with-color/bee-A1SF.svg","response":0,"trial_type":"image-button-response","trial_index":162,"time_elapsed":383486,"internal_node_id":"0.0-6.0-0.26","subject_id":"6146326710af7cfea335bce3","study_id":"60edd13110225f80f9f3709b","session_id":"6196c1f678eba4aac5ef9750","condition":"contingent","relevant_dimensions":["pattern","legs"],"bee_group":{"antennae":"X","wings":"X","pattern":"D","legs":"F"},"bonus":1.4000000000000008},{"rt":808.3000000007451,"stimulus":"bees-with-color/bee-A1DF.svg","response":1,"trial_type":"image-button-response","trial_index":163,"time_elapsed":384295,"internal_node_id":"0.0-6.0-0.27","subject_id":"6146326710af7cfea335bce3","study_id":"60edd13110225f80f9f3709b","session_id":"6196c1f678eba4aac5ef9750","condition":"contingent","relevant_dimensions":["pattern","legs"],"bee_group":{"antennae":"X","wings":"X","pattern":"D","legs":"F"},"bonus":1.4000000000000008},{"rt":719,"stimulus":"bees-with-color/bee-B2DM.svg","response":1,"trial_type":"image-button-response","trial_index":164,"time_elapsed":385015,"internal_node_id":"0.0-6.0-0.28","subject_id":"6146326710af7cfea335bce3","study_id":"60edd13110225f80f9f3709b","session_id":"6196c1f678eba4aac5ef9750","condition":"contingent","relevant_dimensions":["pattern","legs"],"bee_group":{"antennae":"X","wings":"X","pattern":"D","legs":"F"},"bonus":1.4000000000000008