[{"success":true,"trial_type":"fullscreen","trial_index":0,"time_elapsed":58015,"internal_node_id":"0.0-0.0","subject_id":"60e4dde24ae3ef466418b19f","study_id":"6197b3f67c2b5cd3b6d9596a","session_id":"6197b9ee66b27ec7ffa8fef3","condition":"full-information","relevant_dimensions":["wings","legs"],"bee_group":{"antennae":"X","wings":"2","pattern":"X","legs":"F"},"bonus":1.8400000000000012},{"success":true,"timeout":false,"failed_images":[],"failed_audio":[],"failed_video":[],"trial_type":"preload","trial_index":1,"time_elapsed":66585,"internal_node_id":"0.0-1.0","subject_id":"60e4dde24ae3ef466418b19f","study_id":"6197b3f67c2b5cd3b6d9596a","session_id":"6197b9ee66b27ec7ffa8fef3","condition":"full-information","relevant_dimensions":["wings","legs"],"bee_group":{"antennae":"X","wings":"2","pattern":"X","legs":"F"},"bonus":1.8400000000000012},{"rt":4006.9000000059605,"stimulus":"Welcome! Press any key to begin.","response":" ","trial_type":"html-keyboard-response","trial_index":2,"time_elapsed":70593,"internal_node_id":"0.0-2.0","subject_id":"60e4dde24ae3ef466418b19f","study_id":"6197b3f67c2b5cd3b6d9596a","session_id":"6197b9ee66b27ec7ffa8fef3","condition":"full-information","relevant_dimensions":["wings","legs"],"bee_group":{"antennae":"X","wings":"2","pattern":"X","legs":"F"},"bonus":1.8400000000000012},{"view_history":[{"page_index":0,"viewing_time":6020.699999988079},{"page_index":1,"viewing_time":14865.90000000596},{"page_index":2,"viewing_time":13241.299999982119},{"page_index":3,"viewing_time":19260},{"page_index":4,"viewing_time":6247.600000023842},{"page_index":5,"viewing_time":4375.5},{"page_index":6,"viewing_time":8743.699999988079},{"page_index":7,"viewing_time":6325.5999999940395},{"page_index":8,"viewing_time":6754.700000017881},{"page_index":9,"viewing_time":5389.5999999940395},{"page_index":10,"viewing_time":2191.9000000059605},{"page_index":11,"viewing_time":7924.399999976158},{"page_index":12,"viewing_time":5013},{"page_index":13,"viewing_time":1255.6000000238419},{"page_index":14,"viewing_time":2725}],"rt":110334.89999997616,"trial_type":"instructions","trial_index":3,"time_elapsed":180929,"internal_node_id":"0.0-3.0-0.0","subject_id":"60e4dde24ae3ef466418b19f","study_id":"6197b3f67c2b5cd3b6d9596a","session_id":"6197b9ee66b27ec7ffa8fef3","condition":"full-information","relevant_dimensions":["wings","legs"],"bee_group":{"antennae":"X","wings":"2","pattern":"X","legs":"F"},"bonus":1.8400000000000012},{"rt":16180.90000000596,"response":{"Q0":["Two or six legs","Stripes or spots on body","Single or double wings","Antennae or no antennae"]},"question_order":[0],"trial_type":"survey-multi-select","trial_index":4,"time_elapsed":197115,"internal_node_id":"0.0-3.0-1.0","subject_id":"60e4dde24ae3ef466418b19f","study_id":"6197b3f67c2b5cd3b6d9596a","session_id":"6197b9ee66b27ec7ffa8fef3","condition":"full-information","relevant_dimensions":["wings","legs"],"bee_group":{"antennae":"X","wings":"2","pattern":"X","legs":"F"},"correct":true,"bonus":1.8400000000000012},{"rt":46291.80000001192,"response":{"Q1":"No.","Q2":"Based on the four features of the bee.","Q3":"You do not learn if it was friendly or dangerous, and do not alter your bonus."},"question_order":[0,1,2],"trial_type":"survey-multi-choice","trial_index":5,"time_elapsed":243411,"internal_node_id":"0.0-3.0-2.0","subject_id":"60e4dde24ae3ef466418b19f","study_id":"6197b3f67c2b5cd3b6d9596a","session_id":"6197b9ee66b27ec7ffa8fef3","condition":"full-information","relevant_dimensions":["wings","legs"],"bee_group":{"antennae":"X","wings":"2","pattern":"X","legs":"F"},"correct":false,"bonus":1.8400000000000012},{"rt":2941.7000000178814,"stimulus":"<p>You did not answer all comprehension questions correctly.<br>Press <b>continue</b> to review the instructions again.</p>","response":0,"trial_type":"html-button-response","trial_index":6,"time_elapsed":246357,"internal_node_id":"0.0-3.0-3.0","subject_id":"60e4dde24ae3ef466418b19f","study_id":"6197b3f67c2b5cd3b6d9596a","session_id":"6197b9ee66b27ec7ffa8fef3","condition":"full-information","relevant_dimensions":["wings","legs"],"bee_group":{"antennae":"X","wings":"2","pattern":"X","legs":"F"},"bonus":1.8400000000000012},{"view_history":[{"page_index":0,"viewing_time":2905.2999999821186},{"page_index":1,"viewing_time":1867},{"page_index":2,"viewing_time":1061},{"page_index":3,"viewing_time":5337.5},{"page_index":4,"viewing_time":8236.600000023842},{"page_index":5,"viewing_time":1204},{"page_index":6,"viewing_time":905},{"page_index":7,"viewing_time":930.8999999761581},{"page_index":8,"viewing_time":423.90000000596046},{"page_index":9,"viewing_time":411},{"page_index":10,"viewing_time":423.90000000596046},{"page_index":11,"viewing_time":931},{"page_index":12,"viewing_time":917.9000000059605},{"page_index":13,"viewing_time":1061.199999988079},{"page_index":14,"viewing_time":605.7000000178814}],"rt":27222.29999998212,"trial_type":"instructions","trial_index":7,"time_elapsed":273579,"internal_node_id":"0.0-3.0-4.0-0.0","subject_id":"60e4dde24ae3ef466418b19f","study_id":"6197b3f67c2b5cd3b6d9596a","session_id":"6197b9ee66b27ec7ffa8fef3","condition":"full-information","relevant_dimensions":["wings","legs"],"bee_group":{"antennae":"X","wings":"2","pattern":"X","legs":"F"},"bonus":1.8400000000000012},{"rt":12688.700000017881,"response":{"Q0":["Two or six legs","Stripes or spots on body","Single or double wings","Antennae or no antennae"]},"question_order":[0],"trial_type":"survey-multi-select","trial_index":8,"time_elapsed":286271,"internal_node_id":"0.0-3.0-4.0-1.0","subject_id":"60e4dde24ae3ef466418b19f","study_id":"6197b3f67c2b5cd3b6d9596a","session_id":"6197b9ee66b27ec7ffa8fef3","condition":"full-information","relevant_dimensions":["wings","legs"],"bee_group":{"antennae":"X","wings":"2","pattern":"X","legs":"F"},"correct":true,"bonus":1.8400000000000012},{"rt":12559.40000000596,"response":{"Q1":"No.","Q2":"Based on the four features of the bee.","Q3":"You learn if it was friendly or dangerous, but do not alter your bonus."},"question_order":[0,1,2],"trial_type":"survey-multi-choice","trial_index":9,"time_elapsed":298834,"internal_node_id":"0.0-3.0-4.0-2.0","subject_id":"60e4dde24ae3ef466418b19f","study_id":"6197b3f67c2b5cd3b6d9596a","session_id":"6197b9ee66b27ec7ffa8fef3","condition":"full-information","relevant_dimensions":["wings","legs"],"bee_group":{"antennae":"X","wings":"2","pattern":"X","legs":"F"},"correct":true,"bonus":1.8400000000000012},{"rt":3605.300000011921,"stimulus":"<p>Congrats, you got everything right<br>When you're ready, click the button below to continue to the experiment.</p>","response":0,"trial_type":"html-button-response","trial_index":10,"time_elapsed":302443,"internal_node_id":"0.0-3.0-4.0-3.0","subject_id":"60e4dde24ae3ef466418b19f","study_id":"6197b3f67c2b5cd3b6d9596a","session_id":"6197b9ee66b27ec7ffa8fef3","condition":"full-information","relevant_dimensions":["wings","legs"],"bee_group":{"antennae":"X","wings":"2","pattern":"X","legs":"F"},"bonus":1.8400000000000012},{"rt":6466.299999982119,"stimulus":"bees-with-color/bee-A2SM.svg","response":0,"trial_type":"image-button-response","trial_index":11,"time_elapsed":308911,"internal_node_id":"0.0-4.0-0.0","subject_id":"60e4dde24ae3ef466418b19f","study_id":"6197b3f67c2b5cd3b6d9596a","session_id":"6197b9ee66b27ec7ffa8fef3","condition":"full-information","relevant_dimensions":["wings","legs"],"bee_group":{"antennae":"X","wings":"2","pattern":"X","legs":"F"},"action":"harvest","summary":"good-harvest","bonus":1.8400000000000012},{"rt":31424.09999999404,"stimulus":"\n                    <p><b>Action: <em>harvest</em></b></p>\n                    <p>This is the bee that you just saw.</p>\n                    <img src=\"bees-with-color/bee-A2SM.svg\" width=\"200\">\n                    <p><span class=\"greenText\"><b>Successful harvest!</b></span><br>Your pay has increased by $0.02. Your bonus pay is now $0.56.</p>\n            ","response":0,"trial_type":"html-button-response","trial_index":12,"time_elapsed":340338,"internal_node_id":"0.0-4.0-1.0","subject_id":"60e4dde24ae3ef466418b19f","study_id":"6197b3f67c2b5cd3b6d9596a","session_id":"6197b9ee66b27ec7ffa8fef3","condition":"full-information","relevant_dimensions":["wings","legs"],"bee_group":{"antennae":"X","wings":"2","pattern":"X","legs":"F"},"bonus":1.8400000000000012},{"rt":9001.40000000596,"stimulus":"bees-with-color/bee-A2DM.svg","response":0,"trial_type":"image-button-response","trial_index":13,"time_elapsed":349342,"internal_node_id":"0.0-4.0-0.1","subject_id":"60e4dde24ae3ef466418b19f","study_id":"6197b3f67c2b5cd3b6d9596a","session_id":"6197b9ee66b27ec7ffa8fef3","condition":"full-information","relevant_dimensions":["wings","legs"],"bee_group":{"antennae":"X","wings":"2","pattern":"X","legs":"F"},"action":"harvest","summary":"good-harvest","bonus":1.8400000000000012},{"rt":20349.70000001788,"stimulus":"\n                    <p><b>Action: <em>harvest</em></b></p>\n                    <p>This is the bee that you just saw.</p>\n                    <img src=\"bees-with-color/bee-A2DM.svg\" width=\"200\">\n                    <p><span class=\"greenText\"><b>Successful harvest!</b></span><br>Your pay has increased by $0.02. Your bonus pay is now $0.58.</p>\n            ","response":0,"trial_type":"html-button-response","trial_index":14,"time_elapsed":369694,"internal_node_id":"0.0-4.0-1.1","subject_id":"60e4dde24ae3ef466418b19f","study_id":"6197b3f67c2b5cd3b6d9596a","session_id":"6197b9ee66b27ec7ffa8fef3","condition":"full-information","relevant_dimensions":["wings","legs"],"bee_group":{"antennae":"X","wings":"2","pattern":"X","legs":"F"},"bonus":1.8400000000000012},{"rt":5959.700000017881,"stimulus":"bees-with-color/bee-B2DF.svg","response":1,"trial_type":"image-button-response","trial_index":15,"time_elapsed":375655,"internal_node_id":"0.0-4.0-0.2","subject_id":"60e4dde24ae3ef466418b19f","study_id":"6197b3f67c2b5cd3b6d9596a","session_id":"6197b9ee66b27ec7ffa8fef3","condition":"full-information","relevant_dimensions":["wings","legs"],"bee_group":{"antennae":"X","wings":"2","pattern":"X","legs":"F"},"action":"avoid","summary":"good-avoid","bonus":1.8400000000000012},{"rt":32361.40000000596,"stimulus":"\n                    <p><b>Action: <em>avoid</em></b></p>\n                    <p>This is the bee that you just saw.</p>\n                    <img src=\"bees-with-color/bee-B2DF.svg\" width=\"200\">\n                    <p><span class=\"greenText\">Good choice!</span>  This bee would have stung you.<br>Your bonus pay is unchanged, and remains at $0.58.</p>\n            ","response":0,"trial_type":"html-button-response","trial_index":16,"time_elapsed":408018,"internal_node_id":"0.0-4.0-1.2","subject_id":"60e4dde24ae3ef466418b19f","study_id":"6197b3f67c2b5cd3b6d9596a","session_id":"6197b9ee66b27ec7ffa8fef3","condition":"full-information","relevant_dimensions":["wings","legs"],"bee_group":{"antennae":"X","wings":"2","pattern":"X","legs":"F"},"bonus":1.8400000000000012},{"rt":8911,"stimulus":"bees-with-color/bee-B1DF.svg","response":1,"trial_type":"image-button-response","trial_index":17,"time_elapsed":416931,"internal_node_id":"0.0-4.0-0.3","subject_id":"60e4dde24ae3ef466418b19f","study_id":"6197b3f67c2b5cd3b6d9596a","session_id":"6197b9ee66b27ec7ffa8fef3","condition":"full-information","relevant_dimensions":["wings","legs"],"bee_group":{"antennae":"X","wings":"2","pattern":"X","legs":"F"},"action":"avoid","summary":"bad-avoid","bonus":1.8400000000000012},{"rt":57176.5,"stimulus":"\n                    <p><b>Action: <em>avoid</em></b></p>\n                    <p>This is the bee that you just saw.</p>\n                    <img src=\"bees-with-color/bee-B1DF.svg\" width=\"200\">\n                    <p><span class=\"redText\">Bad choice,</span> the bee was friendly.<br>Your bonus pay is unchanged, and remains at $0.58.</p>\n            ","response":0,"trial_type":"html-button-response","trial_index":18,"time_elapsed":474110,"internal_node_id":"0.0-4.0-1.3","subject_id":"60e4dde24ae3ef466418b19f","study_id":"6197b3f67c2b5cd3b6d9596a","session_id":"6197b9ee66b27ec7ffa8fef3","condition":"full-information","relevant_dimensions":["wings","legs"],"bee_group":{"antennae":"X","wings":"2","pattern":"X","legs":"F"},"bonus":1.8400000000000012},{"rt":16736.5,"stimulus":"bees-with-color/bee-B1SF.svg","response":1,"trial_type":"image-button-response","trial_index":19,"time_elapsed":490848,"internal_node_id":"0.0-4.0-0.4","subject_id":"60e4dde24ae3ef466418b19f","study_id":"6197b3f67c2b5cd3b6d9596a","session_id":"6197b9ee66b27ec7ffa8fef3","condition":"full-information","relevant_dimensions":["wings","legs"],"bee_group":{"antennae":"X","wings":"2","pattern":"X","legs":"F"},"action":"avoid","summary":"bad-avoid","bonus":1.8400000000000012},{"rt":13265,"stimulus":"\n                    <p><b>Action: <em>avoid</em></b></p>\n                    <p>This is the bee that you just saw.</p>\n                    <img src=\"bees-with-color/bee-B1SF.svg\" width=\"200\">\n                    <p><span class=\"redText\">Bad choice,</span> the bee was friendly.<br>Your bonus pay is unchanged, and remains at $0.58.</p>\n            ","response":0,"trial_type":"html-button-response","trial_index":20,"time_elapsed":504115,"internal_node_id":"0.0-4.0-1.4","subject_id":"60e4dde24ae3ef466418b19f","study_id":"6197b3f67c2b5cd3b6d9596a","session_id":"6197b9ee66b27ec7ffa8fef3","condition":"full-information","relevant_dimensions":["wings","legs"],"bee_group":{"antennae":"X","wings":"2","pattern":"X","legs":"F"},"bonus":1.8400000000000012},{"rt":29722.600000023842,"stimulus":"bees-with-color/bee-A2DF.svg","response":0,"trial_type":"image-button-response","trial_index":21,"time_elapsed":533839,"internal_node_id":"0.0-4.0-0.5","subject_id":"60e4dde24ae3ef466418b19f","study_id":"6197b3f67c2b5cd3b6d9596a","session_id":"6197b9ee66b27ec7ffa8fef3","condition":"full-information","relevant_dimensions":["wings","legs"],"bee_group":{"antennae":"X","wings":"2","pattern":"X","legs":"F"},"action":"harvest","summary":"bad-harvest","bonus":1.8400000000000012},{"rt":33297.5,"stimulus":"\n                    <p><b>Action: <em>harvest</em></b></p>\n                    <p>This is the bee that you just saw.</p>\n                    <img src=\"bees-with-color/bee-A2DF.svg\" width=\"200\">\n                    <p><span class=\"redText\">Bad choice, the bee was angry.</span><br><b>You have been stung!</b><br>Your pay has been decreased by $0.10. Your bonus pay is now $0.48.</p>\n            ","response":0,"trial_type":"html-button-response","trial_index":22,"time_elapsed":567138,"internal_node_id":"0.0-4.0-1.5","subject_id":"60e4dde24ae3ef466418b19f","study_id":"6197b3f67c2b5cd3b6d9596a","session_id":"6197b9ee66b27ec7ffa8fef3","condition":"full-information","relevant_dimensions":["wings","legs"],"bee_group":{"antennae":"X","wings":"2","pattern":"X","legs":"F"},"bonus":1.8400000000000012},{"rt":10015.299999982119,"stimulus":"bees-with-color/bee-B2DM.svg","response":0,"trial_type":"image-button-response","trial_index":23,"time_elapsed":577156,"internal_node_id":"0.0-4.0-0.6","subject_id":"60e4dde24ae3ef466418b19f","study_id":"6197b3f67c2b5cd3b6d9596a","session_id":"6197b9ee66b27ec7ffa8fef3","condition":"full-information","relevant_dimensions":["wings","legs"],"bee_group":{"antennae":"X","wings":"2","pattern":"X","legs":"F"},"action":"harvest","summary":"good-harvest","bonus":1.8400000000000012},{"rt":16021.40000000596,"stimulus":"\n                    <p><b>Action: <em>harvest</em></b></p>\n                    <p>This is the bee that you just saw.</p>\n                    <img src=\"bees-with-color/bee-B2DM.svg\" width=\"200\">\n                    <p><span class=\"greenText\"><b>Successful harvest!</b></span><br>Your pay has increased by $0.02. Your bonus pay is now $0.50.</p>\n            ","response":0,"trial_type":"html-button-response","trial_index":24,"time_elapsed":593179,"internal_node_id":"0.0-4.0-1.6","subject_id":"60e4dde24ae3ef466418b19f","study_id":"6197b3f67c2b5cd3b6d9596a","session_id":"6197b9ee66b27ec7ffa8fef3","condition":"full-information","relevant_dimensions":["wings","legs"],"bee_group":{"antennae":"X","wings":"2","pattern":"X","legs":"F"},"bonus":1.8400000000000012},{"rt":16905.19999998808,"stimulus":"bees-with-color/bee-A1SF.svg","response":0,"trial_type":"image-button-response","trial_index":25,"time_elapsed":610086,"internal_node_id":"0.0-4.0-0.7","subject_id":"60e4dde24ae3ef466418b19f","study_id":"6197b3f67c2b5cd3b6d9596a","session_id":"6197b9ee66b27ec7ffa8fef3","condition":"full-information","relevant_dimensions":["wings","legs"],"bee_group":{"antennae":"X","wings":"2","pattern":"X","legs":"F"},"action":"harvest","summary":"good-harvest","bonus":1.8400000000000012},{"rt":14955.59999999404,"stimulus":"\n                    <p><b>Action: <em>harvest</em></b></p>\n                    <p>This is the bee that you just saw.</p>\n                    <img src=\"bees-with-color/bee-A1SF.svg\" width=\"200\">\n                    <p><span class=\"greenText\"><b>Successful harvest!</b></span><br>Your pay has increased by $0.02. Your bonus pay is now $0.52.</p>\n            ","response":0,"trial_type":"html-button-response","trial_index":26,"time_elapsed":625043,"internal_node_id":"0.0-4.0-1.7","subject_id":"60e4dde24ae3ef466418b19f","study_id":"6197b3f67c2b5cd3b6d9596a","session_id":"6197b9ee66b27ec7ffa8fef3","condition":"full-information","relevant_dimensions":["wings","legs"],"bee_group":{"antennae":"X","wings":"2","pattern":"X","legs":"F"},"bonus":1.8400000000000012},{"rt":21142.80000001192,"stimulus":"bees-with-color/bee-A1DM.svg","response":0,"trial_type":"image-button-response","trial_index":27,"time_elapsed":646188,"internal_node_id":"0.0-4.0-0.8","subject_id":"60e4dde24ae3ef466418b19f","study_id":"6197b3f67c2b5cd3b6d9596a","session_id":"6197b9ee66b27ec7ffa8fef3","condition":"full-information","relevant_dimensions":["wings","legs"],"bee_group":{"antennae":"X","wings":"2","pattern":"X","legs":"F"},"action":"harvest","summary":"good-harvest","bonus":1.8400000000000012},{"rt":16436.40000000596,"stimulus":"\n                    <p><b>Action: <em>harvest</em></b></p>\n                    <p>This is the bee that you just saw.</p>\n                    <img src=\"bees-with-color/bee-A1DM.svg\" width=\"200\">\n                    <p><span class=\"greenText\"><b>Successful harvest!</b></span><br>Your pay has increased by $0.02. Your bonus pay is now $0.54.</p>\n            ","response":0,"trial_type":"html-button-response","trial_index":28,"time_elapsed":662627,"internal_node_id":"0.0-4.0-1.8","subject_id":"60e4dde24ae3ef466418b19f","study_id":"6197b3f67c2b5cd3b6d9596a","session_id":"6197b9ee66b27ec7ffa8fef3","condition":"full-information","relevant_dimensions":["wings","legs"],"bee_group":{"antennae":"X","wings":"2","pattern":"X","legs":"F"},"bonus":1.8400000000000012},{"rt":21897,"stimulus":"bees-with-color/bee-A2SF.svg","response":1,"trial_type":"image-button-response","trial_index":29,"time_elapsed":684525,"internal_node_id":"0.0-4.0-0.9","subject_id":"60e4dde24ae3ef466418b19f","study_id":"6197b3f67c2b5cd3b6d9596a","session_id":"6197b9ee66b27ec7ffa8fef3","condition":"full-information","relevant_dimensions":["wings","legs"],"bee_group":{"antennae":"X","wings":"2","pattern":"X","legs":"F"},"action":"avoid","summary":"good-avoid","bonus":1.8400000000000012},{"rt":31958.30000001192,"stimulus":"\n                    <p><b>Action: <em>avoid</em></b></p>\n                    <p>This is the bee that you just saw.</p>\n                    <img src=\"bees-with-color/bee-A2SF.svg\" width=\"200\">\n                    <p><span class=\"greenText\">Good choice!</span>  This bee would have stung you.<br>Your bonus pay is unchanged, and remains at $0.54.</p>\n            ","response":0,"trial_type":"html-button-response","trial_index":30,"time_elapsed":716485,"internal_node_id":"0.0-4.0-1.9","subject_id":"60e4dde24ae3ef466418b19f","study_id":"6197b3f67c2b5cd3b6d9596a","session_id":"6197b9ee66b27ec7ffa8fef3","condition":"full-information","relevant_dimensions":["wings","legs"],"bee_group":{"antennae":"X","wings":"2","pattern":"X","legs":"F"},"bonus":1.8400000000000012},{"rt":5362.300000011921,"stimulus":"bees-with-color/bee-B2SM.svg","response":0,"trial_type":"image-button-response","trial_index":31,"time_elapsed":721849,"internal_node_id":"0.0-4.0-0.10","subject_id":"60e4dde24ae3ef466418b19f","study_id":"6197b3f67c2b5cd3b6d9596a","session_id":"6197b9ee66b27ec7ffa8fef3","condition":"full-information","relevant_dimensions":["wings","legs"],"bee_group":{"antennae":"X","wings":"2","pattern":"X","legs":"F"},"action":"harvest","summary":"good-harvest","bonus":1.8400000000000012},{"rt":1904,"stimulus":"\n                    <p><b>Action: <em>harvest</em></b></p>\n                    <p>This is the bee that you just saw.</p>\n                    <img src=\"bees-with-color/bee-B2SM.svg\" width=\"200\">\n                    <p><span class=\"greenText\"><b>Successful harvest!</b></span><br>Your pay has increased by $0.02. Your bonus pay is now $0.56.</p>\n            ","response":0,"trial_type":"html-button-response","trial_index":32,"time_elapsed":723755,"internal_node_id":"0.0-4.0-1.10","subject_id":"60e4dde24ae3ef466418b19f","study_id":"6197b3f67c2b5cd3b6d9596a","session_id":"6197b9ee66b27ec7ffa8fef3","condition":"full-information","relevant_dimensions":["wings","legs"],"bee_group":{"antennae":"X","wings":"2","pattern":"X","legs":"F"},"bonus":1.8400000000000012},{"rt":2684.4000000059605,"stimulus":"bees-with-color/bee-A1DF.svg","response":0,"trial_type":"image-button-response","trial_index":33,"time_elapsed":726441,"internal_node_id":"0.0-4.0-0.11","subject_id":"60e4dde24ae3ef466418b19f","study_id":"6197b3f67c2b5cd3b6d9596a","session_id":"6197b9ee66b27ec7ffa8fef3","condition":"full-information","relevant_dimensions":["wings","legs"],"bee_group":{"antennae":"X","wings":"2","pattern":"X","legs":"F"},"action":"harvest","summary":"good-harvest","bonus":1.8400000000000012},{"rt":981.3000000119209,"stimulus":"\n                    <p><b>Action: <em>harvest</em></b></p>\n                    <p>This is the bee that you just saw.</p>\n                    <img src=\"bees-with-color/bee-A1DF.svg\" width=\"200\">\n                    <p><span class=\"greenText\"><b>Successful harvest!</b></span><br>Your pay has increased by $0.02. Your bonus pay is now $0.58.</p>\n            ","response":0,"trial_type":"html-button-response","trial_index":34,"time_elapsed":727424,"internal_node_id":"0.0-4.0-1.11","subject_id":"60e4dde24ae3ef466418b19f","study_id":"6197b3f67c2b5cd3b6d9596a","session_id":"6197b9ee66b27ec7ffa8fef3","condition":"full-information","relevant_dimensions":["wings","legs"],"bee_group":{"antennae":"X","wings":"2","pattern":"X","legs":"F"},"bonus":1.8400000000000012},{"rt":1982.300000011921,"stimulus":"bees-with-color/bee-B1DM.svg","response":0,"trial_type":"image-button-response","trial_index":35,"time_elapsed":729408,"internal_node_id":"0.0-4.0-0.12","subject_id":"60e4dde24ae3ef466418b19f","study_id":"6197b3f67c2b5cd3b6d9596a","session_id":"6197b9ee66b27ec7ffa8fef3","condition":"full-information","relevant_dimensions":["wings","legs"],"bee_group":{"antennae":"X","wings":"2","pattern":"X","legs":"F"},"action":"harvest","summary":"good-harvest","bonus":1.8400000000000012},{"rt":1020.1999999880791,"stimulus":"\n                    <p><b>Action: <em>harvest</em></b></p>\n                    <p>This is the bee that you just saw.</p>\n                    <img src=\"bees-with-color/bee-B1DM.svg\" width=\"200\">\n                    <p><span class=\"greenText\"><b>Successful harvest!</b></span><br>Your pay has increased by $0.02. Your bonus pay is now $0.60.</p>\n            ","response":0,"trial_type":"html-button-response","trial_index":36,"time_elapsed":730430,"internal_node_id":"0.0-4.0-1.12","subject_id":"60e4dde24ae3ef466418b19f","study_id":"6197b3f67c2b5cd3b6d9596a","session_id":"6197b9ee66b27ec7ffa8fef3","condition":"full-information","relevant_dimensions":["wings","legs"],"bee_group":{"antennae":"X","wings":"2","pattern":"X","legs":"F"},"bonus":1.8400000000000012},{"rt":1449.5999999940395,"stimulus":"bees-with-color/bee-B1SM.svg","response":0,"trial_type":"image-button-response","trial_index":37,"time_elapsed":731881,"internal_node_id":"0.0-4.0-0.13","subject_id":"60e4dde24ae3ef466418b19f","study_id":"6197b3f67c2b5cd3b6d9596a","session_id":"6197b9ee66b27ec7ffa8fef3","condition":"full-information","relevant_dimensions":["wings","legs"],"bee_group":{"antennae":"X","wings":"2","pattern":"X","legs":"F"},"action":"harvest","summary":"good-harvest","bonus":1.8400000000000012},{"rt":929.5,"stimulus":"\n                    <p><b>Action: <em>harvest</em></b></p>\n                    <p>This is the bee that you just saw.</p>\n                    <img src=\"bees-with-color/bee-B1SM.svg\" width=\"200\">\n                    <p><span class=\"greenText\"><b>Successful harvest!</b></span><br>Your pay has increased by $0.02. Your bonus pay is now $0.62.</p>\n            ","response":0,"trial_type":"html-button-response","trial_index":38,"time_elapsed":732812,"internal_node_id":"0.0-4.0-1.13","subject_id":"60e4dde24ae3ef466418b19f","study_id":"6197b3f67c2b5cd3b6d9596a","session_id":"6197b9ee66b27ec7ffa8fef3","condition":"full-information","relevant_dimensions":["wings","legs"],"bee_group":{"antennae":"X","wings":"2","pattern":"X","legs":"F"},"bonus":1.8400000000000012},{"rt":1852.4000000059605,"stimulus":"bees-with-color/bee-A1SM.svg","response":0,"trial_type":"image-button-response","trial_index":39,"time_elapsed":734666,"internal_node_id":"0.0-4.0-0.14","subject_id":"60e4dde24ae3ef466418b19f","study_id":"6197b3f67c2b5cd3b6d9596a","session_id":"6197b9ee66b27ec7ffa8fef3","condition":"full-information","relevant_dimensions":["wings","legs"],"bee_group":{"antennae":"X","wings":"2","pattern":"X","legs":"F"},"action":"harvest","summary":"good-harvest","bonus":1.8400000000000012},{"rt":1253.7000000178814,"stimulus":"\n                    <p><b>Action: <em>harvest</em></b></p>\n                    <p>This is the bee that you just saw.</p>\n                    <img src=\"bees-with-color/bee-A1SM.svg\" width=\"200\">\n                    <p><span class=\"greenText\"><b>Successful harvest!</b></span><br>Your pay has increased by $0.02. Your bonus pay is now $0.64.</p>\n            ","response":0,"trial_type":"html-button-response","trial_index":40,"time_elapsed":735921,"internal_node_id":"0.0-4.0-1.14","subject_id":"60e4dde24ae3ef466418b19f","study_id":"6197b3f67c2b5cd3b6d9596a","session_id":"6197b9ee66b27ec7ffa8fef3","condition":"full-information","relevant_dimensions":["wings","legs"],"bee_group":{"antennae":"X","wings":"2","pattern":"X","legs":"F"},"bonus":1.8400000000000012},{"rt":3646.7000000178814,"stimulus":"bees-with-color/bee-B2SF.svg","response":1,"trial_type":"image-button-response","trial_index":41,"time_elapsed":739569,"internal_node_id":"0.0-4.0-0.15","subject_id":"60e4dde24ae3ef466418b19f","study_id":"6197b3f67c2b5cd3b6d9596a","session_id":"6197b9ee66b27ec7ffa8fef3","condition":"full-information","relevant_dimensions":["wings","legs"],"bee_group":{"antennae":"X","wings":"2","pattern":"X","legs":"F"},"action":"avoid","summary":"good-avoid","bonus":1.8400000000000012},{"rt":5036.700000017881,"stimulus":"\n                    <p><b>Action: <em>avoid</em></b></p>\n                    <p>This is the bee that you just saw.</p>\n                    <img src=\"bees-with-color/bee-B2SF.svg\" width=\"200\">\n                    <p><span class=\"greenText\">Good choice!</span>  This bee would have stung you.<br>Your bonus pay is unchanged, and remains at $0.64.</p>\n            ","response":0,"trial_type":"html-button-response","trial_index":42,"time_elapsed":744608,"internal_node_id":"0.0-4.0-1.15","subject_id":"60e4dde24ae3ef466418b19f","study_id":"6197b3f67c2b5cd3b6d9596a","session_id":"6197b9ee66b27ec7ffa8fef3","condition":"full-information","relevant_dimensions":["wings","legs"],"bee_group":{"antennae":"X","wings":"2","pattern":"X","legs":"F"},"bonus":1.8400000000000012},{"rt":1423.300000011921,"stimulus":"bees-with-color/bee-B1DM.svg","response":0,"trial_type":"image-button-response","trial_index":43,"time_elapsed":746033,"internal_node_id":"0.0-4.0-0.16","subject_id":"60e4dde24ae3ef466418b19f","study_id":"6197b3f67c2b5cd3b6d9596a","session_id":"6197b9ee66b27ec7ffa8fef3","condition":"full-information","relevant_dimensions":["wings","legs"],"bee_group":{"antennae":"X","wings":"2","pattern":"X","legs":"F"},"action":"harvest","summary":"good-harvest","bonus":1.8400000000000012},{"rt":877.2000000178814,"stimulus":"\n                    <p><b>Action: <em>harvest</em></b></p>\n                    <p>This is the bee that you just saw.</p>\n                    <img src=\"bees-with-color/bee-B1DM.svg\" width=\"200\">\n                    <p><span class=\"greenText\"><b>Successful harvest!</b></span><br>Your pay has increased by $0.02. Your bonus pay is now $0.66.</p>\n            ","response":0,"trial_type":"html-button-response","trial_index":44,"time_elapsed":746912,"internal_node_id":"0.0-4.0-1.16","subject_id":"60e4dde24ae3ef466418b19f","study_id":"6197b3f67c2b5cd3b6d9596a","session_id":"6197b9ee66b27ec7ffa8fef3","condition":"full-information","relevant_dimensions":["wings","legs"],"bee_group":{"antennae":"X","wings":"2","pattern":"X","legs":"F"},"bonus":1.8400000000000012},{"rt":2372.5999999940395,"stimulus":"bees-with-color/bee-B2SF.svg","response":1,"trial_type":"image-button-response","trial_index":45,"time_elapsed":749286,"internal_node_id":"0.0-4.0-0.17","subject_id":"60e4dde24ae3ef466418b19f","study_id":"6197b3f67c2b5cd3b6d9596a","session_id":"6197b9ee66b27ec7ffa8fef3","condition":"full-information","relevant_dimensions":["wings","legs"],"bee_group":{"antennae":"X","wings":"2","pattern":"X","legs":"F"},"action":"avoid","summary":"good-avoid","bonus":1.8400000000000012},{"rt":1436.199999988079,"stimulus":"\n                    <p><b>Action: <em>avoid</em></b></p>\n                    <p>This is the bee that you just saw.</p>\n                    <img src=\"bees-with-color/bee-B2SF.svg\" width=\"200\">\n                    <p><span class=\"greenText\">Good choice!</span>  This bee would have stung you.<br>Your bonus pay is unchanged, and remains at $0.66.</p>\n            ","response":0,"trial_type":"html-button-response","trial_index":46,"time_elapsed":750724,"internal_node_id":"0.0-4.0-1.17","subject_id":"60e4dde24ae3ef466418b19f","study_id":"6197b3f67c2b5cd3b6d9596a","session_id":"6197b9ee66b27ec7ffa8fef3","condition":"full-information","relevant_dimensions":["wings","legs"],"bee_group":{"antennae":"X","wings":"2","pattern":"X","legs":"F"},"bonus":1.8400000000000012},{"rt":2450.5,"stimulus":"bees-with-color/bee-B2SM.svg","response":0,"trial_type":"image-button-response","trial_index":47,"time_elapsed":753176,"internal_node_id":"0.0-4.0-0.18","subject_id":"60e4dde24ae3ef466418b19f","study_id":"6197b3f67c2b5cd3b6d9596a","session_id":"6197b9ee66b27ec7ffa8fef3","condition":"full-information","relevant_dimensions":["wings","legs"],"bee_group":{"antennae":"X","wings":"2","pattern":"X","legs":"F"},"action":"harvest","summary":"good-harvest","bonus":1.8400000000000012},{"rt":825.4000000059605,"stimulus":"\n                    <p><b>Action: <em>harvest</em></b></p>\n                    <p>This is the bee that you just saw.</p>\n                    <img src=\"bees-with-color/bee-B2SM.svg\" width=\"200\">\n                    <p><span class=\"greenText\"><b>Successful harvest!</b></span><br>Your pay has increased by $0.02. Your bonus pay is now $0.68.</p>\n            ","response":0,"trial_type":"html-button-response","trial_index":48,"time_elapsed":754002,"internal_node_id":"0.0-4.0-1.18","subject_id":"60e4dde24ae3ef466418b19f","study_id":"6197b3f67c2b5cd3b6d9596a","session_id":"6197b9ee66b27ec7ffa8fef3","condition":"full-information","relevant_dimensions":["wings","legs"],"bee_group":{"antennae":"X","wings":"2","pattern":"X","legs":"F"},"bonus":1.8400000000000012},{"rt":2229.800000011921,"stimulus":"bees-with-color/bee-B1SF.svg","response":0,"trial_type":"image-button-response","trial_index":49,"time_elapsed":756233,"internal_node_id":"0.0-4.0-0.19","subject_id":"60e4dde24ae3ef466418b19f","study_id":"6197b3f67c2b5cd3b6d9596a","session_id":"6197b9ee66b27ec7ffa8fef3","condition":"full-information","relevant_dimensions":["wings","legs"],"bee_group":{"antennae":"X","wings":"2","pattern":"X","legs":"F"},"action":"harvest","summary":"good-harvest","bonus":1.8400000000000012},{"rt":968.2999999821186,"stimulus":"\n                    <p><b>Action: <em>harvest</em></b></p>\n                    <p>This is the bee that you just saw.</p>\n                    <img src=\"bees-with-color/bee-B1SF.svg\" width=\"200\">\n                    <p><span class=\"greenText\"><b>Successful harvest!</b></span><br>Your pay has increased by $0.02. Your bonus pay is now $0.70.</p>\n            ","response":0,"trial_type":"html-button-response","trial_index":50,"time_elapsed":757203,"internal_node_id":"0.0-4.0-1.19","subject_id":"60e4dde24ae3ef466418b19f","study_id":"6197b3f67c2b5cd3b6d9596a","session_id":"6197b9ee66b27ec7ffa8fef3","condition":"full-information","relevant_dimensions":["wings","legs"],"bee_group":{"antennae":"X","wings":"2","pattern":"X","legs":"F"},"bonus":1.8400000000000012},{"rt":1930.2999999821186,"stimulus":"bees-with-color/bee-B2DF.svg","response":1,"trial_type":"image-button-response","trial_index":51,"time_elapsed":759135,"internal_node_id":"0.0-4.0-0.20","subject_id":"60e4dde24ae3ef466418b19f","study_id":"6197b3f67c2b5cd3b6d9596a","session_id":"6197b9ee66b27ec7ffa8fef3","condition":"full-information","relevant_dimensions":["wings","legs"],"bee_group":{"antennae":"X","wings":"2","pattern":"X","legs":"F"},"action":"avoid","summary":"good-avoid","bonus":1.8400000000000012},{"rt":1150.199999988079,"stimulus":"\n                    <p><b>Action: <em>avoid</em></b></p>\n                    <p>This is the bee that you just saw.</p>\n                    <img src=\"bees-with-color/bee-B2DF.svg\" width=\"200\">\n                    <p><span class=\"greenText\">Good choice!</span>  This bee would have stung you.<br>Your bonus pay is unchanged, and remains at $0.70.</p>\n            ","response":0,"trial_type":"html-button-response","trial_index":52,"time_elapsed":760287,"internal_node_id":"0.0-4.0-1.20","subject_id":"60e4dde24ae3ef466418b19f","study_id":"6197b3f67c2b5cd3b6d9596a","session_id":"6197b9ee66b27ec7ffa8fef3","condition":"full-information","relevant_dimensions":["wings","legs"],"bee_group":{"antennae":"X","wings":"2","pattern":"X","legs":"F"},"bonus":1.8400000000000012},{"rt":2099.5999999940395,"stimulus":"bees-with-color/bee-A2DM.svg","response":0,"trial_type":"image-button-response","trial_index":53,"time_elapsed":762388,"internal_node_id":"0.0-4.0-0.21","subject_id":"60e4dde24ae3ef466418b19f","study_id":"6197b3f67c2b5cd3b6d9596a","session_id":"6197b9ee66b27ec7ffa8fef3","condition":"full-information","relevant_dimensions":["wings","legs"],"bee_group":{"antennae":"X","wings":"2","pattern":"X","legs":"F"},"action":"harvest","summary":"good-harvest","bonus":1.8400000000000012},{"rt":708.3000000119209,"stimulus":"\n                    <p><b>Action: <em>harvest</em></b></p>\n                    <p>This is the bee that you just saw.</p>\n                    <img src=\"bees-with-color/bee-A2DM.svg\" width=\"200\">\n                    <p><span class=\"greenText\"><b>Successful harvest!</b></span><br>Your pay has increased by $0.02. Your bonus pay is now $0.72.</p>\n            ","response":0,"trial_type":"html-button-response","trial_index":54,"time_elapsed":763098,"internal_node_id":"0.0-4.0-1.21","subject_id":"60e4dde24ae3ef466418b19f","study_id":"6197b3f67c2b5cd3b6d9596a","session_id":"6197b9ee66b27ec7ffa8fef3","condition":"full-information","relevant_dimensions":["wings","legs"],"bee_group":{"antennae":"X","wings":"2","pattern":"X","legs":"F"},"bonus":1.8400000000000012},{"rt":1488.4000000059605,"stimulus":"bees-with-color/bee-B1SM.svg","response":0,"trial_type":"image-button-response","trial_index":55,"time_elapsed":764588,"internal_node_id":"0.0-4.0-0.22","subject_id":"60e4dde24ae3ef466418b19f","study_id":"6197b3f67c2b5cd3b6d9596a","session_id":"6197b9ee66b27ec7ffa8fef3","condition":"full-information","relevant_dimensions":["wings","legs"],"bee_group":{"antennae":"X","wings":"2","pattern":"X","legs":"F"},"action":"harvest","summary":"good-harvest","bonus":1.8400000000000012},{"rt":1098.0999999940395,"stimulus":"\n                    <p><b>Action: <em>harvest</em></b></p>\n                    <p>This is the bee that you just saw.</p>\n                    <img src=\"bees-with-color/bee-B1SM.svg\" width=\"200\">\n                    <p><span class=\"greenText\"><b>Successful harvest!</b></span><br>Your pay has increased by $0.02. Your bonus pay is now $0.74.</p>\n            ","response":0,"trial_type":"html-button-response","trial_index":56,"time_elapsed":765688,"internal_node_id":"0.0-4.0-1.22","subject_id":"60e4dde24ae3ef466418b19f","study_id":"6197b3f67c2b5cd3b6d9596a","session_id":"6197b9ee66b27ec7ffa8fef3","condition":"full-information","relevant_dimensions":["wings","legs"],"bee_group":{"antennae":"X","wings":"2","pattern":"X","legs":"F"},"bonus":1.8400000000000012},{"rt":1553.699999988079,"stimulus":"bees-with-color/bee-A2SM.svg","response":0,"trial_type":"image-button-response","trial_index":57,"time_elapsed":767243,"internal_node_id":"0.0-4.0-0.23","subject_id":"60e4dde24ae3ef466418b19f","study_id":"6197b3f67c2b5cd3b6d9596a","session_id":"6197b9ee66b27ec7ffa8fef3","condition":"full-information","relevant_dimensions":["wings","legs"],"bee_group":{"antennae":"X","wings":"2","pattern":"X","legs":"F"},"action":"harvest","summary":"good-harvest","bonus":1.8400000000000012},{"rt":708.0999999940395,"stimulus":"\n                    <p><b>Action: <em>harvest</em></b></p>\n                    <p>This is the bee that you just saw.</p>\n                    <img src=\"bees-with-color/bee-A2SM.svg\" width=\"200\">\n                    <p><span class=\"greenText\"><b>Successful harvest!</b></span><br>Your pay has increased by $0.02. Your bonus pay is now $0.76.</p>\n            ","response":0,"trial_type":"html-button-response","trial_index":58,"time_elapsed":767953,"internal_node_id":"0.0-4.0-1.23","subject_id":"60e4dde24ae3ef466418b19f","study_id":"6197b3f67c2b5cd3b6d9596a","session_id":"6197b9ee66b27ec7ffa8fef3","condition":"full-information","relevant_dimensions":["wings","legs"],"bee_group":{"antennae":"X","wings":"2","pattern":"X","legs":"F"},"bonus":1.8400000000000012},{"rt":1852.699999988079,"stimulus":"bees-with-color/bee-A2DF.svg","response":1,"trial_type":"image-button-response","trial_index":59,"time_elapsed":769807,"internal_node_id":"0.0-4.0-0.24","subject_id":"60e4dde24ae3ef466418b19f","study_id":"6197b3f67c2b5cd3b6d9596a","session_id":"6197b9ee66b27ec7ffa8fef3","condition":"full-information","relevant_dimensions":["wings","legs"],"bee_group":{"antennae":"X","wings":"2","pattern":"X","legs":"F"},"action":"avoid","summary":"good-avoid","bonus":1.8400000000000012},{"rt":1045.9000000059605,"stimulus":"\n                    <p><b>Action: <em>avoid</em></b></p>\n                    <p>This is the bee that you just saw.</p>\n                    <img src=\"bees-with-color/bee-A2DF.svg\" width=\"200\">\n                    <p><span class=\"greenText\">Good choice!</span>  This bee would have stung you.<br>Your bonus pay is unchanged, and remains at $0.76.</p>\n            ","response":0,"trial_type":"html-button-response","trial_index":60,"time_elapsed":770854,"internal_node_id":"0.0-4.0-1.24","subject_id":"60e4dde24ae3ef466418b19f","study_id":"6197b3f67c2b5cd3b6d9596a","session_id":"6197b9ee66b27ec7ffa8fef3","condition":"full-information","relevant_dimensions":["wings","legs"],"bee_group":{"antennae":"X","wings":"2","pattern":"X","legs":"F"},"bonus":1.8400000000000012},{"rt":1657.5,"stimulus":"bees-with-color/bee-A1DF.svg","response":0,"trial_type":"image-button-response","trial_index":61,"time_elapsed":772513,"internal_node_id":"0.0-4.0-0.25","subject_id":"60e4dde24ae3ef466418b19f","study_id":"6197b3f67c2b5cd3b6d9596a","session_id":"6197b9ee66b27ec7ffa8fef3","condition":"full-information","relevant_dimensions":["wings","legs"],"bee_group":{"antennae":"X","wings":"2","pattern":"X","legs":"F"},"action":"harvest","summary":"good-harvest","bonus":1.8400000000000012},{"rt":994.1000000238419,"stimulus":"\n                    <p><b>Action: <em>harvest</em></b></p>\n                    <p>This is the bee that you just saw.</p>\n                    <img src=\"bees-with-color/bee-A1DF.svg\" width=\"200\">\n                    <p><span class=\"greenText\"><b>Successful harvest!</b></span><br>Your pay has increased by $0.02. Your bonus pay is now $0.78.</p>\n            ","response":0,"trial_type":"html-button-response","trial_index":62,"time_elapsed":773509,"internal_node_id":"0.0-4.0-1.25","subject_id":"60e4dde24ae3ef466418b19f","study_id":"6197b3f67c2b5cd3b6d9596a","session_id":"6197b9ee66b27ec7ffa8fef3","condition":"full-information","relevant_dimensions":["wings","legs"],"bee_group":{"antennae":"X","wings":"2","pattern":"X","legs":"F"},"bonus":1.8400000000000012},{"rt":1462.7000000178814,"stimulus":"bees-with-color/bee-A2SF.svg","response":1,"trial_type":"image-button-response","trial_index":63,"time_elapsed":774973,"internal_node_id":"0.0-4.0-0.26","subject_id":"60e4dde24ae3ef466418b19f","study_id":"6197b3f67c2b5cd3b6d9596a","session_id":"6197b9ee66b27ec7ffa8fef3","condition":"full-information","relevant_dimensions":["wings","legs"],"bee_group":{"antennae":"X","wings":"2","pattern":"X","legs":"F"},"action":"avoid","summary":"good-avoid","bonus":1.8400000000000012},{"rt":1046.2000000178814,"stimulus":"\n                    <p><b>Action: <em>avoid</em></b></p>\n                    <p>This is the bee that you just saw.</p>\n                    <img src=\"bees-with-color/bee-A2SF.svg\" width=\"200\">\n                    <p><span class=\"greenText\">Good choice!</span>  This bee would have stung you.<br>Your bonus pay is unchanged, and remains at $0.78.</p>\n            ","response":0,"trial_type":"html-button-response","trial_index":64,"time_elapsed":776021,"internal_node_id":"0.0-4.0-1.26","subject_id":"60e4dde24ae3ef466418b19f","study_id":"6197b3f67c2b5cd3b6d9596a","session_id":"6197b9ee66b27ec7ffa8fef3","condition":"full-information","relevant_dimensions":["wings","legs"],"bee_group":{"antennae":"X","wings":"2","pattern":"X","legs":"F"},"bonus":1.8400000000000012},{"rt":1618.5999999940395,"stimulus":"bees-with-color/bee-B2DM.svg","response":0,"trial_type":"image-button-response","trial_index":65,"time_elapsed":777641,"internal_node_id":"0.0-4.0-0.27","subject_id":"60e4dde24ae3ef466418b19f","study_id":"6197b3f67c2b5cd3b6d9596a","session_id":"6197b9ee66b27ec7ffa8fef3","condition":"full-information","relevant_dimensions":["wings","legs"],"bee_group":{"antennae":"X","wings":"2","pattern":"X","legs":"F"},"action":"harvest","summary":"good-harvest","bonus":1.8400000000000012},{"rt":617.1000000238419,"stimulus":"\n                    <p><b>Action: <em>harvest</em></b></p>\n                    <p>This is the bee that you just saw.</p>\n                    <img src=\"bees-with-color/bee-B2DM.svg\" width=\"200\">\n                    <p><span class=\"greenText\"><b>Successful harvest!</b></span><br>Your pay has increased by $0.02. Your bonus pay is now $0.80.</p>\n            ","response":0,"trial_type":"html-button-response","trial_index":66,"time_elapsed":778260,"internal_node_id":"0.0-4.0-1.27","subject_id":"60e4dde24ae3ef466418b19f","study_id":"6197b3f67c2b5cd3b6d9596a","session_id":"6197b9ee66b27ec7ffa8fef3","condition":"full-information","relevant_dimensions":["wings","legs"],"bee_group":{"antennae":"X","wings":"2","pattern":"X","legs":"F"},"bonus":1.8400000000000012},{"rt":3490.800000011921,"stimulus":"bees-with-color/bee-A1SF.svg","response":0,"trial_type":"image-button-response","trial_index":67,"time_elapsed":781752,"internal_node_id":"0.0-4.0-0.28","subject_id":"60e4dde24ae3ef466418b19f","study_id":"6197b3f67c2b5cd3b6d9596a","session_id":"6197b9ee66b27ec7ffa8fef3","condition":"full-information","relevant_dimensions":["wings","legs"],"bee_group":{"antennae":"X","wings":"2","pattern":"X","legs":"F"},"action":"harvest","summary":"good-harvest","bonus":1.8400000000000012},{"rt":708,"stimulus":"\n                    <p><b>Action: <em>harvest</em></b></p>\n                    <p>This is the bee that you just saw.</p>\n                    <img src=\"bees-with-color/bee-A1SF.svg\" width=\"200\">\n                    <p><span class=\"greenText\"><b>Successful harvest!</b></span><br>Your pay has increased by $0.02. Your bonus pay is now $0.82.</p>\n            ","response":0,"trial_type":"html-button-response","trial_index":68,"time_elapsed":782462,"internal_node_id":"0.0-4.0-1.28","subject_id":"60e4dde24ae3ef466418b19f","study_id":"6197b3f67c2b5cd3b6d9596a","session_id":"6197b9ee66b27ec7ffa8fef3","condition":"full-information","relevant_dimensions":["wings","legs"],"bee_group":{"antennae":"X","wings":"2","pattern":"X","legs":"F"},"bonus":1.8400000000000012},{"rt":1254.2999999821186,"stimulus":"bees-with-color/bee-A1SM.svg","response":0,"trial_type":"image-button-response","trial_index":69,"time_elapsed":783718,"internal_node_id":"0.0-4.0-0.29","subject_id":"60e4dde24ae3ef466418b19f","study_id":"6197b3f67c2b5cd3b6d9596a","session_id":"6197b9ee66b27ec7ffa8fef3","condition":"full-information","relevant_dimensions":["wings","legs"],"bee_group":{"antennae":"X","wings":"2","pattern":"X","legs":"F"},"action":"harvest","summary":"good-harvest","bonus":1.8400000000000012},{"rt":643.2000000178814,"stimulus":"\n                    <p><b>Action: <em>harvest</em></b></p>\n                    <p>This is the bee that you just saw.</p>\n                    <img src=\"bees-with-color/bee-A1SM.svg\" width=\"200\">\n                    <p><span class=\"greenText\"><b>Successful harvest!</b></span><br>Your pay has increased by $0.02. Your bonus pay is now $0.84.</p>\n            ","response":0,"trial_type":"html-button-response","trial_index":70,"time_elapsed":784362,"internal_node_id":"0.0-4.0-1.29","subject_id":"60e4dde24ae3ef466418b19f","study_id":"6197b3f67c2b5cd3b6d9596a","session_id":"6197b9ee66b27ec7ffa8fef3","condition":"full-information","relevant_dimensions":["wings","legs"],"bee_group":{"antennae":"X","wings":"2","pattern":"X","legs":"F"},"bonus":1.8400000000000012},{"rt":774,"stimulus":"bees-with-color/bee-A1DM.svg","response":0,"trial_type":"image-button-response","trial_index":71,"time_elapsed":785138,"internal_node_id":"0.0-4.0-0.30","subject_id":"60e4dde24ae3ef466418b19f","study_id":"6197b3f67c2b5cd3b6d9596a","session_id":"6197b9ee66b27ec7ffa8fef3","condition":"full-information","relevant_dimensions":["wings","legs"],"bee_group":{"antennae":"X","wings":"2","pattern":"X","legs":"F"},"action":"harvest","summary":"good-harvest","bonus":1.8400000000000012},{"rt":578.4000000059605,"stimulus":"\n                    <p><b>Action: <em>harvest</em></b></p>\n                    <p>This is the bee that you just saw.</p>\n                    <img src=\"bees-with-color/bee-A1DM.svg\" width=\"200\">\n                    <p><span class=\"greenText\"><b>Successful harvest!</b></span><br>Your pay has increased by $0.02. Your bonus pay is now $0.86.</p>\n            ","response":0,"trial_type":"html-button-response","trial_index":72,"time_elapsed":785718,"internal_node_id":"0.0-4.0-1.30","subject_id":"60e4dde24ae3ef466418b19f","study_id":"6197b3f67c2b5cd3b6d9596a","session_id":"6197b9ee66b27ec7ffa8fef3","condition":"full-information","relevant_dimensions":["wings","legs"],"bee_group":{"antennae":"X","wings":"2","pattern":"X","legs":"F"},"bonus":1.8400000000000012},{"rt":773.8000000119209,"stimulus":"bees-with-color/bee-B1DF.svg","response":0,"trial_type":"image-button-response","trial_index":73,"time_elapsed":786493,"internal_node_id":"0.0-4.0-0.31","subject_id":"60e4dde24ae3ef466418b19f","study_id":"6197b3f67c2b5cd3b6d9596a","session_id":"6197b9ee66b27ec7ffa8fef3","condition":"full-information","relevant_dimensions":["wings","legs"],"bee_group":{"antennae":"X","wings":"2","pattern":"X","legs":"F"},"action":"harvest","summary":"good-harvest","bonus":1.8400000000000012},{"rt":1644.5,"stimulus":"\n                    <p><b>Action: <em>harvest</em></b></p>\n                    <p>This is the bee that you just saw.</p>\n                    <img src=\"bees-with-color/bee-B1DF.svg\" width=\"200\">\n                    <p><span class=\"greenText\"><b>Successful harvest!</b></span><br>Your pay has increased by $0.02. Your bonus pay is now $0.88.</p>\n            ","response":0,"trial_type":"html-button-response","trial_index":74,"time_elapsed":788139,"internal_node_id":"0.0-4.0-1.31","subject_id":"60e4dde24ae3ef466418b19f","study_id":"6197b3f67c2b5cd3b6d9596a","session_id":"6197b9ee66b27ec7ffa8fef3","condition":"full-information","relevant_dimensions":["wings","legs"],"bee_group":{"antennae":"X","wings":"2","pattern":"X","legs":"F"},"bonus":1.8400000000000012},{"rt":1540.5999999940395,"stimulus":"bees-with-color/bee-A1SF.svg","response":0,"trial_type":"image-button-response","trial_index":75,"time_elapsed":789680,"internal_node_id":"0.0-4.0-0.32","subject_id":"60e4dde24ae3ef466418b19f","study_id":"6197b3f67c2b5cd3b6d9596a","session_id":"6197b9ee66b27ec7ffa8fef3","condition":"full-information","relevant_dimensions":["wings","legs"],"bee_group":{"antennae":"X","wings":"2","pattern":"X","legs":"F"},"action":"harvest","summary":"good-harvest","bonus":1.8400000000000012},{"rt":851.1999999880791,"stimulus":"\n                    <p><b>Action: <em>harvest</em></b></p>\n                    <p>This is the bee that you just saw.</p>\n                    <img src=\"bees-with-color/bee-A1SF.svg\" width=\"200\">\n                    <p><span class=\"greenText\"><b>Successful harvest!</b></span><br>Your pay has increased by $0.02. Your bonus pay is now $0.90.</p>\n            ","response":0,"trial_type":"html-button-response","trial_index":76,"time_elapsed":790533,"internal_node_id":"0.0-4.0-1.32","subject_id":"60e4dde24ae3ef466418b19f","study_id":"6197b3f67c2b5cd3b6d9596a","session_id":"6197b9ee66b27ec7ffa8fef3","condition":"full-information","relevant_dimensions":["wings","legs"],"bee_group":{"antennae":"X","wings":"2","pattern":"X","legs":"F"},"bonus":1.8400000000000012},{"rt":825.8000000119209,"stimulus":"bees-with-color/bee-B1SF.svg","response":0,"trial_type":"image-button-response","trial_index":77,"time_elapsed":791360,"internal_node_id":"0.0-4.0-0.33","subject_id":"60e4dde24ae3ef466418b19f","study_id":"6197b3f67c2b5cd3b6d9596a","session_id":"6197b9ee66b27ec7ffa8fef3","condition":"full-information","relevant_dimensions":["wings","legs"],"bee_group":{"antennae":"X","wings":"2","pattern":"X","legs":"F"},"action":"harvest","summary":"good-harvest","bonus":1.8400000000000012},{"rt":708,"stimulus":"\n                    <p><b>Action: <em>harvest</em></b></p>\n                    <p>This is the bee that you just saw.</p>\n                    <img src=\"bees-with-color/bee-B1SF.svg\" width=\"200\">\n                    <p><span class=\"greenText\"><b>Successful harvest!</b></span><br>Your pay has increased by $0.02. Your bonus pay is now $0.92.</p>\n            ","response":0,"trial_type":"html-button-response","trial_index":78,"time_elapsed":792070,"internal_node_id":"0.0-4.0-1.33","subject_id":"60e4dde24ae3ef466418b19f","study_id":"6197b3f67c2b5cd3b6d9596a","session_id":"6197b9ee66b27ec7ffa8fef3","condition":"full-information","relevant_dimensions":["wings","legs"],"bee_group":{"antennae":"X","wings":"2","pattern":"X","legs":"F"},"bonus":1.8400000000000012},{"rt":1046.7999999821186,"stimulus":"bees-with-color/bee-A1DM.svg","response":0,"trial_type":"image-button-response","trial_index":79,"time_elapsed":793118,"internal_node_id":"0.0-4.0-0.34","subject_id":"60e4dde24ae3ef466418b19f","study_id":"6197b3f67c2b5cd3b6d9596a","session_id":"6197b9ee66b27ec7ffa8fef3","condition":"full-information","relevant_dimensions":["wings","legs"],"bee_group":{"antennae":"X","wings":"2","pattern":"X","legs":"F"},"action":"harvest","summary":"good-harvest","bonus":1.8400000000000012},{"rt":578.0999999940395,"stimulus":"\n                    <p><b>Action: <em>harvest</em></b></p>\n                    <p>This is the bee that you just saw.</p>\n                    <img src=\"bees-with-color/bee-A1DM.svg\" width=\"200\">\n                    <p><span class=\"greenText\"><b>Successful harvest!</b></span><br>Your pay has increased by $0.02. Your bonus pay is now $0.94.</p>\n            ","response":0,"trial_type":"html-button-response","trial_index":80,"time_elapsed":793698,"internal_node_id":"0.0-4.0-1.34","subject_id":"60e4dde24ae3ef466418b19f","study_id":"6197b3f67c2b5cd3b6d9596a","session_id":"6197b9ee66b27ec7ffa8fef3","condition":"full-information","relevant_dimensions":["wings","legs"],"bee_group":{"antennae":"X","wings":"2","pattern":"X","legs":"F"},"bonus":1.8400000000000012},{"rt":1566.5999999940395,"stimulus":"bees-with-color/bee-A2DF.svg","response":1,"trial_type":"image-button-response","trial_index":81,"time_elapsed":795266,"internal_node_id":"0.0-4.0-0.35","subject_id":"60e4dde24ae3ef466418b19f","study_id":"6197b3f67c2b5cd3b6d9596a","session_id":"6197b9ee66b27ec7ffa8fef3","condition":"full-information","relevant_dimensions":["wings","legs"],"bee_group":{"antennae":"X","wings":"2","pattern":"X","legs":"F"},"action":"avoid","summary":"good-avoid","bonus":1.8400000000000012},{"rt":733.9000000059605,"stimulus":"\n                    <p><b>Action: <em>avoid</em></b></p>\n                    <p>This is the bee that you just saw.</p>\n                    <img src=\"bees-with-color/bee-A2DF.svg\" width=\"200\">\n                    <p><span class=\"greenText\">Good choice!</span>  This bee would have stung you.<br>Your bonus pay is unchanged, and remains at $0.94.</p>\n            ","response":0,"trial_type":"html-button-response","trial_index":82,"time_elapsed":796002,"internal_node_id":"0.0-4.0-1.35","subject_id":"60e4dde24ae3ef466418b19f","study_id":"6197b3f67c2b5cd3b6d9596a","session_id":"6197b9ee66b27ec7ffa8fef3","condition":"full-information","relevant_dimensions":["wings","legs"],"bee_group":{"antennae":"X","wings":"2","pattern":"X","legs":"F"},"bonus":1.8400000000000012},{"rt":2320.600000023842,"stimulus":"bees-with-color/bee-A2DM.svg","response":0,"trial_type":"image-button-response","trial_index":83,"time_elapsed":798324,"internal_node_id":"0.0-4.0-0.36","subject_id":"60e4dde24ae3ef466418b19f","study_id":"6197b3f67c2b5cd3b6d9596a","session_id":"6197b9ee66b27ec7ffa8fef3","condition":"full-information","relevant_dimensions":["wings","legs"],"bee_group":{"antennae":"X","wings":"2","pattern":"X","legs":"F"},"action":"harvest","summary":"good-harvest","bonus":1.8400000000000012},{"rt":838.2000000178814,"stimulus":"\n                    <p><b>Action: <em>harvest</em></b></p>\n                    <p>This is the bee that you just saw.</p>\n                    <img src=\"bees-with-color/bee-A2DM.svg\" width=\"200\">\n                    <p><span class=\"greenText\"><b>Successful harvest!</b></span><br>Your pay has increased by $0.02. Your bonus pay is now $0.96.</p>\n            ","response":0,"trial_type":"html-button-response","trial_index":84,"time_elapsed":799164,"internal_node_id":"0.0-4.0-1.36","subject_id":"60e4dde24ae3ef466418b19f","study_id":"6197b3f67c2b5cd3b6d9596a","session_id":"6197b9ee66b27ec7ffa8fef3","condition":"full-information","relevant_dimensions":["wings","legs"],"bee_group":{"antennae":"X","wings":"2","pattern":"X","legs":"F"},"bonus":1.8400000000000012},{"rt":2567.199999988079,"stimulus":"bees-with-color/bee-A2SM.svg","response":0,"trial_type":"image-button-response","trial_index":85,"time_elapsed":801733,"internal_node_id":"0.0-4.0-0.37","subject_id":"60e4dde24ae3ef466418b19f","study_id":"6197b3f67c2b5cd3b6d9596a","session_id":"6197b9ee66b27ec7ffa8fef3","condition":"full-information","relevant_dimensions":["wings","legs"],"bee_group":{"antennae":"X","wings":"2","pattern":"X","legs":"F"},"action":"harvest","summary":"good-harvest","bonus":1.8400000000000012},{"rt":1540.0999999940395,"stimulus":"\n                    <p><b>Action: <em>harvest</em></b></p>\n                    <p>This is the bee that you just saw.</p>\n                    <img src=\"bees-with-color/bee-A2SM.svg\" width=\"200\">\n                    <p><span class=\"greenText\"><b>Successful harvest!</b></span><br>Your pay has increased by $0.02. Your bonus pay is now $0.98.</p>\n            ","response":0,"trial_type":"html-button-response","trial_index":86,"time_elapsed":803275,"internal_node_id":"0.0-4.0-1.37","subject_id":"60e4dde24ae3ef466418b19f","study_id":"6197b3f67c2b5cd3b6d9596a","session_id":"6197b9ee66b27ec7ffa8fef3","condition":"full-information","relevant_dimensions":["wings","legs"],"bee_group":{"antennae":"X","wings":"2","pattern":"X","legs":"F"},"bonus":1.8400000000000012},{"rt":1306.4000000059605,"stimulus":"bees-with-color/bee-B2SF.svg","response":1,"trial_type":"image-button-response","trial_index":87,"time_elapsed":804582,"internal_node_id":"0.0-4.0-0.38","subject_id":"60e4dde24ae3ef466418b19f","study_id":"6197b3f67c2b5cd3b6d9596a","session_id":"6197b9ee66b27ec7ffa8fef3","condition":"full-information","relevant_dimensions":["wings","legs"],"bee_group":{"antennae":"X","wings":"2","pattern":"X","legs":"F"},"action":"avoid","summary":"good-avoid","bonus":1.8400000000000012},{"rt":643.4000000059605,"stimulus":"\n                    <p><b>Action: <em>avoid</em></b></p>\n                    <p>This is the bee that you just saw.</p>\n                    <img src=\"bees-with-color/bee-B2SF.svg\" width=\"200\">\n                    <p><span class=\"greenText\">Good choice!</span>  This bee would have stung you.<br>Your bonus pay is unchanged, and remains at $0.98.</p>\n            ","response":0,"trial_type":"html-button-response","trial_index":88,"time_elapsed":805227,"internal_node_id":"0.0-4.0-1.38","subject_id":"60e4dde24ae3ef466418b19f","study_id":"6197b3f67c2b5cd3b6d9596a","session_id":"6197b9ee66b27ec7ffa8fef3","condition":"full-information","relevant_dimensions":["wings","legs"],"bee_group":{"antennae":"X","wings":"2","pattern":"X","legs":"F"},"bonus":1.8400000000000012},{"rt":1215.7000000178814,"stimulus":"bees-with-color/bee-B1DM.svg","response":0,"trial_type":"image-button-response","trial_index":89,"time_elapsed":806444,"internal_node_id":"0.0-4.0-0.39","subject_id":"60e4dde24ae3ef466418b19f","study_id":"6197b3f67c2b5cd3b6d9596a","session_id":"6197b9ee66b27ec7ffa8fef3","condition":"full-information","relevant_dimensions":["wings","legs"],"bee_group":{"antennae":"X","wings":"2","pattern":"X","legs":"F"},"action":"harvest","summary":"good-harvest","bonus":1.8400000000000012},{"rt":1046.2999999821186,"stimulus":"\n                    <p><b>Action: <em>harvest</em></b></p>\n                    <p>This is the bee that you just saw.</p>\n                    <img src=\"bees-with-color/bee-B1DM.svg\" width=\"200\">\n                    <p><span class=\"greenText\"><b>Successful harvest!</b></span><br>Your pay has increased by $0.02. Your bonus pay is now $1.00.</p>\n            ","response":0,"trial_type":"html-button-response","trial_index":90,"time_elapsed":807492,"internal_node_id":"0.0-4.0-1.39","subject_id":"60e4dde24ae3ef466418b19f","study_id":"6197b3f67c2b5cd3b6d9596a","session_id":"6197b9ee66b27ec7ffa8fef3","condition":"full-information","relevant_dimensions":["wings","legs"],"bee_group":{"antennae":"X","wings":"2","pattern":"X","legs":"F"},"bonus":1.8400000000000012},{"rt":1384.7999999821186,"stimulus":"bees-with-color/bee-B2DF.svg","response":1,"trial_type":"image-button-response","trial_index":91,"time_elapsed":808878,"internal_node_id":"0.0-4.0-0.40","subject_id":"60e4dde24ae3ef466418b19f","study_id":"6197b3f67c2b5cd3b6d9596a","session_id":"6197b9ee66b27ec7ffa8fef3","condition":"full-information","relevant_dimensions":["wings","legs"],"bee_group":{"antennae":"X","wings":"2","pattern":"X","legs":"F"},"action":"avoid","summary":"good-avoid","bonus":1.8400000000000012},{"rt":617.2999999821186,"stimulus":"\n                    <p><b>Action: <em>avoid</em></b></p>\n                    <p>This is the bee that you just saw.</p>\n                    <img src=\"bees-with-color/bee-B2DF.svg\" width=\"200\">\n                    <p><span class=\"greenText\">Good choice!</span>  This bee would have stung you.<br>Your bonus pay is unchanged, and remains at $1.00.</p>\n            ","response":0,"trial_type":"html-button-response","trial_index":92,"time_elapsed":809497,"internal_node_id":"0.0-4.0-1.40","subject_id":"60e4dde24ae3ef466418b19f","study_id":"6197b3f67c2b5cd3b6d9596a","session_id":"6197b9ee66b27ec7ffa8fef3","condition":"full-information","relevant_dimensions":["wings","legs"],"bee_group":{"antennae":"X","wings":"2","pattern":"X","legs":"F"},"bonus":1.8400000000000012},{"rt":1917.699999988079,"stimulus":"bees-with-color/bee-A1DF.svg","response":0,"trial_type":"image-button-response","trial_index":93,"time_elapsed":811416,"internal_node_id":"0.0-4.0-0.41","subject_id":"60e4dde24ae3ef466418b19f","study_id":"6197b3f67c2b5cd3b6d9596a","session_id":"6197b9ee66b27ec7ffa8fef3","condition":"full-information","relevant_dimensions":["wings","legs"],"bee_group":{"antennae":"X","wings":"2","pattern":"X","legs":"F"},"action":"harvest","summary":"good-harvest","bonus":1.8400000000000012},{"rt":591.1999999880791,"stimulus":"\n                    <p><b>Action: <em>harvest</em></b></p>\n                    <p>This is the bee that you just saw.</p>\n                    <img src=\"bees-with-color/bee-A1DF.svg\" width=\"200\">\n                    <p><span class=\"greenText\"><b>Successful harvest!</b></span><br>Your pay has increased by $0.02. Your bonus pay is now $1.02.</p>\n            ","response":0,"trial_type":"html-button-response","trial_index":94,"time_elapsed":812009,"internal_node_id":"0.0-4.0-1.41","subject_id":"60e4dde24ae3ef466418b19f","study_id":"6197b3f67c2b5cd3b6d9596a","session_id":"6197b9ee66b27ec7ffa8fef3","condition":"full-information","relevant_dimensions":["wings","legs"],"bee_group":{"antennae":"X","wings":"2","pattern":"X","legs":"F"},"bonus":1.8400000000000012},{"rt":1436.6000000238419,"stimulus":"bees-with-color/bee-B1SM.svg","response":0,"trial_type":"image-button-response","trial_index":95,"time_elapsed":813447,"internal_node_id":"0.0-4.0-0.42","subject_id":"60e4dde24ae3ef466418b19f","study_id":"6197b3f67c2b5cd3b6d9596a","session_id":"6197b9ee66b27ec7ffa8fef3","condition":"full-information","relevant_dimensions":["wings","legs"],"bee_group":{"antennae":"X","wings":"2","pattern":"X","legs":"F"},"action":"harvest","summary":"good-harvest","bonus":1.8400000000000012},{"rt":487.2999999821186,"stimulus":"\n                    <p><b>Action: <em>harvest</em></b></p>\n                    <p>This is the bee that you just saw.</p>\n                    <img src=\"bees-with-color/bee-B1SM.svg\" width=\"200\">\n                    <p><span class=\"greenText\"><b>Successful harvest!</b></span><br>Your pay has increased by $0.02. Your bonus pay is now $1.04.</p>\n            ","response":0,"trial_type":"html-button-response","trial_index":96,"time_elapsed":813936,"internal_node_id":"0.0-4.0-1.42","subject_id":"60e4dde24ae3ef466418b19f","study_id":"6197b3f67c2b5cd3b6d9596a","session_id":"6197b9ee66b27ec7ffa8fef3","condition":"full-information","relevant_dimensions":["wings","legs"],"bee_group":{"antennae":"X","wings":"2","pattern":"X","legs":"F"},"bonus":1.8400000000000012},{"rt":1177,"stimulus":"bees-with-color/bee-A2SF.svg","response":1,"trial_type":"image-button-response","trial_index":97,"time_elapsed":815114,"internal_node_id":"0.0-4.0-0.43","subject_id":"60e4dde24ae3ef466418b19f","study_id":"6197b3f67c2b5cd3b6d9596a","session_id":"6197b9ee66b27ec7ffa8fef3","condition":"full-information","relevant_dimensions":["wings","legs"],"bee_group":{"antennae":"X","wings":"2","pattern":"X","legs":"F"},"action":"avoid","summary":"good-avoid","bonus":1.8400000000000012},{"rt":617.1999999880791,"stimulus":"\n                    <p><b>Action: <em>avoid</em></b></p>\n                    <p>This is the bee that you just saw.</p>\n                    <img src=\"bees-with-color/bee-A2SF.svg\" width=\"200\">\n                    <p><span class=\"greenText\">Good choice!</span>  This bee would have stung you.<br>Your bonus pay is unchanged, and remains at $1.04.</p>\n            ","response":0,"trial_type":"html-button-response","trial_index":98,"time_elapsed":815733,"internal_node_id":"0.0-4.0-1.43","subject_id":"60e4dde24ae3ef466418b19f","study_id":"6197b3f67c2b5cd3b6d9596a","session_id":"6197b9ee66b27ec7ffa8fef3","condition":"full-information","relevant_dimensions":["wings","legs"],"bee_group":{"antennae":"X","wings":"2","pattern":"X","legs":"F"},"bonus":1.8400000000000012},{"rt":1280.3999999761581,"stimulus":"bees-with-color/bee-B2SM.svg","response":0,"trial_type":"image-button-response","trial_index":99,"time_elapsed":817015,"internal_node_id":"0.0-4.0-0.44","subject_id":"60e4dde24ae3ef466418b19f","study_id":"6197b3f67c2b5cd3b6d9596a","session_id":"6197b9ee66b27ec7ffa8fef3","condition":"full-information","relevant_dimensions":["wings","legs"],"bee_group":{"antennae":"X","wings":"2","pattern":"X","legs":"F"},"action":"harvest","summary":"good-harvest","bonus":1.8400000000000012},{"rt":526,"stimulus":"\n                    <p><b>Action: <em>harvest</em></b></p>\n                    <p>This is the bee that you just saw.</p>\n                    <img src=\"bees-with-color/bee-B2SM.svg\" width=\"200\">\n                    <p><span class=\"greenText\"><b>Successful harvest!</b></span><br>Your pay has increased by $0.02. Your bonus pay is now $1.06.</p>\n            ","response":0,"trial_type":"html-button-response","trial_index":100,"time_elapsed":817543,"internal_node_id":"0.0-4.0-1.44","subject_id":"60e4dde24ae3ef466418b19f","study_id":"6197b3f67c2b5cd3b6d9596a","session_id":"6197b9ee66b27ec7ffa8fef3","condition":"full-information","relevant_dimensions":["wings","legs"],"bee_group":{"antennae":"X","wings":"2","pattern":"X","legs":"F"},"bonus":1.8400000000000012},{"rt":838.6999999880791,"stimulus":"bees-with-color/bee-A1SM.svg","response":0,"trial_type":"image-button-response","trial_index":101,"time_elapsed":818383,"internal_node_id":"0.0-4.0-0.45","subject_id":"60e4dde24ae3ef466418b19f","study_id":"6197b3f67c2b5cd3b6d9596a","session_id":"6197b9ee66b27ec7ffa8fef3","condition":"full-information","relevant_dimensions":["wings","legs"],"bee_group":{"antennae":"X","wings":"2","pattern":"X","legs":"F"},"action":"harvest","summary":"good-harvest","bonus":1.8400000000000012},{"rt":526.1999999880791,"stimulus":"\n                    <p><b>Action: <em>harvest</em></b></p>\n                    <p>This is the bee that you just saw.</p>\n                    <img src=\"bees-with-color/bee-A1SM.svg\" width=\"200\">\n                    <p><span class=\"greenText\"><b>Successful harvest!</b></span><br>Your pay has increased by $0.02. Your bonus pay is now $1.08.</p>\n            ","response":0,"trial_type":"html-button-response","trial_index":102,"time_elapsed":818911,"internal_node_id":"0.0-4.0-1.45","subject_id":"60e4dde24ae3ef466418b19f","study_id":"6197b3f67c2b5cd3b6d9596a","session_id":"6197b9ee66b27ec7ffa8fef3","condition":"full-information","relevant_dimensions":["wings","legs"],"bee_group":{"antennae":"X","wings":"2","pattern":"X","legs":"F"},"bonus":1.8400000000000012},{"rt":2736.5999999940395,"stimulus":"bees-with-color/bee-B1DF.svg","response":0,"trial_type":"image-button-response","trial_index":103,"time_elapsed":821649,"internal_node_id":"0.0-4.0-0.46","subject_id":"60e4dde24ae3ef466418b19f","study_id":"6197b3f67c2b5cd3b6d9596a","session_id":"6197b9ee66b27ec7ffa8fef3","condition":"full-information","relevant_dimensions":["wings","legs"],"bee_group":{"antennae":"X","wings":"2","pattern":"X","legs":"F"},"action":"harvest","summary":"good-harvest","bonus":1.8400000000000012},{"rt":578,"stimulus":"\n                    <p><b>Action: <em>harvest</em></b></p>\n                    <p>This is the bee that you just saw.</p>\n                    <img src=\"bees-with-color/bee-B1DF.svg\" width=\"200\">\n                    <p><span class=\"greenText\"><b>Successful harvest!</b></span><br>Your pay has increased by $0.02. Your bonus pay is now $1.10.</p>\n            ","response":0,"trial_type":"html-button-response","trial_index":104,"time_elapsed":822229,"internal_node_id":"0.0-4.0-1.46","subject_id":"60e4dde24ae3ef466418b19f","study_id":"6197b3f67c2b5cd3b6d9596a","session_id":"6197b9ee66b27ec7ffa8fef3","condition":"full-information","relevant_dimensions":["wings","legs"],"bee_group":{"antennae":"X","wings":"2","pattern":"X","legs":"F"},"bonus":1.8400000000000012},{"rt":1241.6000000238419,"stimulus":"bees-with-color/bee-B2DM.svg","response":0,"trial_type":"image-button-response","trial_index":105,"time_elapsed":823471,"internal_node_id":"0.0-4.0-0.47","subject_id":"60e4dde24ae3ef466418b19f","study_id":"6197b3f67c2b5cd3b6d9596a","session_id":"6197b9ee66b27ec7ffa8fef3","condition":"full-information","relevant_dimensions":["wings","legs"],"bee_group":{"antennae":"X","wings":"2","pattern":"X","legs":"F"},"action":"harvest","summary":"good-harvest","bonus":1.8400000000000012},{"rt":513.3000000119209,"stimulus":"\n                    <p><b>Action: <em>harvest</em></b></p>\n                    <p>This is the bee that you just saw.</p>\n                    <img src=\"bees-with-color/bee-B2DM.svg\" width=\"200\">\n                    <p><span class=\"greenText\"><b>Successful harvest!</b></span><br>Your pay has increased by $0.02. Your bonus pay is now $1.12.</p>\n            ","response":0,"trial_type":"html-button-response","trial_index":106,"time_elapsed":823986,"internal_node_id":"0.0-4.0-1.47","subject_id":"60e4dde24ae3ef466418b19f","study_id":"6197b3f67c2b5cd3b6d9596a","session_id":"6197b9ee66b27ec7ffa8fef3","condition":"full-information","relevant_dimensions":["wings","legs"],"bee_group":{"antennae":"X","wings":"2","pattern":"X","legs":"F"},"bonus":1.8400000000000012},{"rt":1046.800000011921,"stimulus":"bees-with-color/bee-B2DM.svg","response":0,"trial_type":"image-button-response","trial_index":107,"time_elapsed":825034,"internal_node_id":"0.0-4.0-0.48","subject_id":"60e4dde24ae3ef466418b19f","study_id":"6197b3f67c2b5cd3b6d9596a","session_id":"6197b9ee66b27ec7ffa8fef3","condition":"full-information","relevant_dimensions":["wings","legs"],"bee_group":{"antennae":"X","wings":"2","pattern":"X","legs":"F"},"action":"harvest","summary":"good-harvest","bonus":1.8400000000000012},{"rt":526.4000000059605,"stimulus":"\n                    <p><b>Action: <em>harvest</em></b></p>\n                    <p>This is the bee that you just saw.</p>\n                    <img src=\"bees-with-color/bee-B2DM.svg\" width=\"200\">\n                    <p><span class=\"greenText\"><b>Successful harvest!</b></span><br>Your pay has increased by $0.02. Your bonus pay is now $1.14.</p>\n            ","response":0,"trial_type":"html-button-response","trial_index":108,"time_elapsed":825562,"internal_node_id":"0.0-4.0-1.48","subject_id":"60e4dde24ae3ef466418b19f","study_id":"6197b3f67c2b5cd3b6d9596a","session_id":"6197b9ee66b27ec7ffa8fef3","condition":"full-information","relevant_dimensions":["wings","legs"],"bee_group":{"antennae":"X","wings":"2","pattern":"X","legs":"F"},"bonus":1.8400000000000012},{"rt":1969.7999999821186,"stimulus":"bees-with-color/bee-B2SF.svg","response":1,"trial_type":"image-button-response","trial_index":109,"time_elapsed":827533,"internal_node_id":"0.0-4.0-0.49","subject_id":"60e4dde24ae3ef466418b19f","study_id":"6197b3f67c2b5cd3b6d9596a","session_id":"6197b9ee66b27ec7ffa8fef3","condition":"full-information","relevant_dimensions":["wings","legs"],"bee_group":{"antennae":"X","wings":"2","pattern":"X","legs":"F"},"action":"avoid","summary":"good-avoid","bonus":1.8400000000000012},{"rt":877,"stimulus":"\n                    <p><b>Action: <em>avoid</em></b></p>\n                    <p>This is the bee that you just saw.</p>\n                    <img src=\"bees-with-color/bee-B2SF.svg\" width=\"200\">\n                    <p><span class=\"greenText\">Good choice!</span>  This bee would have stung you.<br>Your bonus pay is unchanged, and remains at $1.14.</p>\n            ","response":0,"trial_type":"html-button-response","trial_index":110,"time_elapsed":828412,"internal_node_id":"0.0-4.0-1.49","subject_id":"60e4dde24ae3ef466418b19f","study_id":"6197b3f67c2b5cd3b6d9596a","session_id":"6197b9ee66b27ec7ffa8fef3","condition":"full-information","relevant_dimensions":["wings","legs"],"bee_group":{"antennae":"X","wings":"2","pattern":"X","legs":"F"},"bonus":1.8400000000000012},{"rt":1124.5,"stimulus":"bees-with-color/bee-B1SF.svg","response":0,"trial_type":"image-button-response","trial_index":111,"time_elapsed":829538,"internal_node_id":"0.0-4.0-0.50","subject_id":"60e4dde24ae3ef466418b19f","study_id":"6197b3f67c2b5cd3b6d9596a","session_id":"6197b9ee66b27ec7ffa8fef3","condition":"full-information","relevant_dimensions":["wings","legs"],"bee_group":{"antennae":"X","wings":"2","pattern":"X","legs":"F"},"action":"harvest","summary":"good-harvest","bonus":1.8400000000000012},{"rt":617.3000000119209,"stimulus":"\n                    <p><b>Action: <em>harvest</em></b></p>\n                    <p>This is the bee that you just saw.</p>\n                    <img src=\"bees-with-color/bee-B1SF.svg\" width=\"200\">\n                    <p><span class=\"greenText\"><b>Successful harvest!</b></span><br>Your pay has increased by $0.02. Your bonus pay is now $1.16.</p>\n            ","response":0,"trial_type":"html-button-response","trial_index":112,"time_elapsed":830157,"internal_node_id":"0.0-4.0-1.50","subject_id":"60e4dde24ae3ef466418b19f","study_id":"6197b3f67c2b5cd3b6d9596a","session_id":"6197b9ee66b27ec7ffa8fef3","condition":"full-information","relevant_dimensions":["wings","legs"],"bee_group":{"antennae":"X","wings":"2","pattern":"X","legs":"F"},"bonus":1.8400000000000012},{"rt":1423.5999999940395,"stimulus":"bees-with-color/bee-B2SM.svg","response":0,"trial_type":"image-button-response","trial_index":113,"time_elapsed":831582,"internal_node_id":"0.0-4.0-0.51","subject_id":"60e4dde24ae3ef466418b19f","study_id":"6197b3f67c2b5cd3b6d9596a","session_id":"6197b9ee66b27ec7ffa8fef3","condition":"full-information","relevant_dimensions":["wings","legs"],"bee_group":{"antennae":"X","wings":"2","pattern":"X","legs":"F"},"action":"harvest","summary":"good-harvest","bonus":1.8400000000000012},{"rt":539,"stimulus":"\n                    <p><b>Action: <em>harvest</em></b></p>\n                    <p>This is the bee that you just saw.</p>\n                    <img src=\"bees-with-color/bee-B2SM.svg\" width=\"200\">\n                    <p><span class=\"greenText\"><b>Successful harvest!</b></span><br>Your pay has increased by $0.02. Your bonus pay is now $1.18.</p>\n            ","response":0,"trial_type":"html-button-response","trial_index":114,"time_elapsed":832123,"internal_node_id":"0.0-4.0-1.51","subject_id":"60e4dde24ae3ef466418b19f","study_id":"6197b3f67c2b5cd3b6d9596a","session_id":"6197b9ee66b27ec7ffa8fef3","condition":"full-information","relevant_dimensions":["wings","legs"],"bee_group":{"antennae":"X","wings":"2","pattern":"X","legs":"F"},"bonus":1.8400000000000012},{"rt":1293.9000000059605,"stimulus":"bees-with-color/bee-B1DM.svg","response":0,"trial_type":"image-button-response","trial_index":115,"time_elapsed":833418,"internal_node_id":"0.0-4.0-0.52","subject_id":"60e4dde24ae3ef466418b19f","study_id":"6197b3f67c2b5cd3b6d9596a","session_id":"6197b9ee66b27ec7ffa8fef3","condition":"full-information","relevant_dimensions":["wings","legs"],"bee_group":{"antennae":"X","wings":"2","pattern":"X","legs":"F"},"action":"harvest","summary":"good-harvest","bonus":1.8400000000000012},{"rt":500.30000001192093,"stimulus":"\n                    <p><b>Action: <em>harvest</em></b></p>\n                    <p>This is the bee that you just saw.</p>\n                    <img src=\"bees-with-color/bee-B1DM.svg\" width=\"200\">\n                    <p><span class=\"greenText\"><b>Successful harvest!</b></span><br>Your pay has increased by $0.02. Your bonus pay is now $1.20.</p>\n            ","response":0,"trial_type":"html-button-response","trial_index":116,"time_elapsed":833920,"internal_node_id":"0.0-4.0-1.52","subject_id":"60e4dde24ae3ef466418b19f","study_id":"6197b3f67c2b5cd3b6d9596a","session_id":"6197b9ee66b27ec7ffa8fef3","condition":"full-information","relevant_dimensions":["wings","legs"],"bee_group":{"antennae":"X","wings":"2","pattern":"X","legs":"F"},"bonus":1.8400000000000012},{"rt":3516.199999988079,"stimulus":"bees-with-color/bee-A1SF.svg","response":0,"trial_type":"image-button-response","trial_index":117,"time_elapsed":837438,"internal_node_id":"0.0-4.0-0.53","subject_id":"60e4dde24ae3ef466418b19f","study_id":"6197b3f67c2b5cd3b6d9596a","session_id":"6197b9ee66b27ec7ffa8fef3","condition":"full-information","relevant_dimensions":["wings","legs"],"bee_group":{"antennae":"X","wings":"2","pattern":"X","legs":"F"},"action":"harvest","summary":"good-harvest","bonus":1.8400000000000012},{"rt":526.3000000119209,"stimulus":"\n                    <p><b>Action: <em>harvest</em></b></p>\n                    <p>This is the bee that you just saw.</p>\n                    <img src=\"bees-with-color/bee-A1SF.svg\" width=\"200\">\n                    <p><span class=\"greenText\"><b>Successful harvest!</b></span><br>Your pay has increased by $0.02. Your bonus pay is now $1.22.</p>\n            ","response":0,"trial_type":"html-button-response","trial_index":118,"time_elapsed":837966,"internal_node_id":"0.0-4.0-1.53","subject_id":"60e4dde24ae3ef466418b19f","study_id":"6197b3f67c2b5cd3b6d9596a","session_id":"6197b9ee66b27ec7ffa8fef3","condition":"full-information","relevant_dimensions":["wings","legs"],"bee_group":{"antennae":"X","wings":"2","pattern":"X","legs":"F"},"bonus":1.8400000000000012},{"rt":1137.5,"stimulus":"bees-with-color/bee-B2DF.svg","response":1,"trial_type":"image-button-response","trial_index":119,"time_elapsed":839105,"internal_node_id":"0.0-4.0-0.54","subject_id":"60e4dde24ae3ef466418b19f","study_id":"6197b3f67c2b5cd3b6d9596a","session_id":"6197b9ee66b27ec7ffa8fef3","condition":"full-information","relevant_dimensions":["wings","legs"],"bee_group":{"antennae":"X","wings":"2","pattern":"X","legs":"F"},"action":"avoid","summary":"good-avoid","bonus":1.8400000000000012},{"rt":630,"stimulus":"\n                    <p><b>Action: <em>avoid</em></b></p>\n                    <p>This is the bee that you just saw.</p>\n                    <img src=\"bees-with-color/bee-B2DF.svg\" width=\"200\">\n                    <p><span class=\"greenText\">Good choice!</span>  This bee would have stung you.<br>Your bonus pay is unchanged, and remains at $1.22.</p>\n            ","response":0,"trial_type":"html-button-response","trial_index":120,"time_elapsed":839736,"internal_node_id":"0.0-4.0-1.54","subject_id":"60e4dde24ae3ef466418b19f","study_id":"6197b3f67c2b5cd3b6d9596a","session_id":"6197b9ee66b27ec7ffa8fef3","condition":"full-information","relevant_dimensions":["wings","legs"],"bee_group":{"antennae":"X","wings":"2","pattern":"X","legs":"F"},"bonus":1.8400000000000012},{"rt":1345.7000000178814,"stimulus":"bees-with-color/bee-A2SM.svg","response":0,"trial_type":"image-button-response","trial_index":121,"time_elapsed":841083,"internal_node_id":"0.0-4.0-0.55","subject_id":"60e4dde24ae3ef466418b19f","study_id":"6197b3f67c2b5cd3b6d9596a","session_id":"6197b9ee66b27ec7ffa8fef3","condition":"full-information","relevant_dimensions":["wings","legs"],"bee_group":{"antennae":"X","wings":"2","pattern":"X","legs":"F"},"action":"harvest","summary":"good-harvest","bonus":1.8400000000000012},{"rt":487.19999998807907,"stimulus":"\n                    <p><b>Action: <em>harvest</em></b></p>\n                    <p>This is the bee that you just saw.</p>\n                    <img src=\"bees-with-color/bee-A2SM.svg\" width=\"200\">\n                    <p><span class=\"greenText\"><b>Successful harvest!</b></span><br>Your pay has increased by $0.02. Your bonus pay is now $1.24.</p>\n            ","response":0,"trial_type":"html-button-response","trial_index":122,"time_elapsed":841572,"internal_node_id":"0.0-4.0-1.55","subject_id":"60e4dde24ae3ef466418b19f","study_id":"6197b3f67c2b5cd3b6d9596a","session_id":"6197b9ee66b27ec7ffa8fef3","condition":"full-information","relevant_dimensions":["wings","legs"],"bee_group":{"antennae":"X","wings":"2","pattern":"X","legs":"F"},"bonus":1.8400000000000012},{"rt":2138.800000011921,"stimulus":"bees-with-color/bee-A1DF.svg","response":0,"trial_type":"image-button-response","trial_index":123,"time_elapsed":843712,"internal_node_id":"0.0-4.0-0.56","subject_id":"60e4dde24ae3ef466418b19f","study_id":"6197b3f67c2b5cd3b6d9596a","session_id":"6197b9ee66b27ec7ffa8fef3","condition":"full-information","relevant_dimensions":["wings","legs"],"bee_group":{"antennae":"X","wings":"2","pattern":"X","legs":"F"},"action":"harvest","summary":"good-harvest","bonus":1.8400000000000012},{"rt":539.1999999880791,"stimulus":"\n                    <p><b>Action: <em>harvest</em></b></p>\n                    <p>This is the bee that you just saw.</p>\n                    <img src=\"bees-with-color/bee-A1DF.svg\" width=\"200\">\n                    <p><span class=\"greenText\"><b>Successful harvest!</b></span><br>Your pay has increased by $0.02. Your bonus pay is now $1.26.</p>\n            ","response":0,"trial_type":"html-button-response","trial_index":124,"time_elapsed":844253,"internal_node_id":"0.0-4.0-1.56","subject_id":"60e4dde24ae3ef466418b19f","study_id":"6197b3f67c2b5cd3b6d9596a","session_id":"6197b9ee66b27ec7ffa8fef3","condition":"full-information","relevant_dimensions":["wings","legs"],"bee_group":{"antennae":"X","wings":"2","pattern":"X","legs":"F"},"bonus":1.8400000000000012},{"rt":799.9000000059605,"stimulus":"bees-with-color/bee-A1DM.svg","response":0,"trial_type":"image-button-response","trial_index":125,"time_elapsed":845054,"internal_node_id":"0.0-4.0-0.57","subject_id":"60e4dde24ae3ef466418b19f","study_id":"6197b3f67c2b5cd3b6d9596a","session_id":"6197b9ee66b27ec7ffa8fef3","condition":"full-information","relevant_dimensions":["wings","legs"],"bee_group":{"antennae":"X","wings":"2","pattern":"X","legs":"F"},"action":"harvest","summary":"good-harvest","bonus":1.8400000000000012},{"rt":448.19999998807907,"stimulus":"\n                    <p><b>Action: <em>harvest</em></b></p>\n                    <p>This is the bee that you just saw.</p>\n                    <img src=\"bees-with-color/bee-A1DM.svg\" width=\"200\">\n                    <p><span class=\"greenText\"><b>Successful harvest!</b></span><br>Your pay has increased by $0.02. Your bonus pay is now $1.28.</p>\n            ","response":0,"trial_type":"html-button-response","trial_index":126,"time_elapsed":845504,"internal_node_id":"0.0-4.0-1.57","subject_id":"60e4dde24ae3ef466418b19f","study_id":"6197b3f67c2b5cd3b6d9596a","session_id":"6197b9ee66b27ec7ffa8fef3","condition":"full-information","relevant_dimensions":["wings","legs"],"bee_group":{"antennae":"X","wings":"2","pattern":"X","legs":"F"},"bonus":1.8400000000000012},{"rt":747.5999999940395,"stimulus":"bees-with-color/bee-A1SM.svg","response":0,"trial_type":"image-button-response","trial_index":127,"time_elapsed":846253,"internal_node_id":"0.0-4.0-0.58","subject_id":"60e4dde24ae3ef466418b19f","study_id":"6197b3f67c2b5cd3b6d9596a","session_id":"6197b9ee66b27ec7ffa8fef3","condition":"full-information","relevant_dimensions":["wings","legs"],"bee_group":{"antennae":"X","wings":"2","pattern":"X","legs":"F"},"action":"harvest","summary":"good-harvest","bonus":1.8400000000000012},{"rt":487.19999998807907,"stimulus":"\n                    <p><b>Action: <em>harvest</em></b></p>\n                    <p>This is the bee that you just saw.</p>\n                    <img src=\"bees-with-color/bee-A1SM.svg\" width=\"200\">\n                    <p><span class=\"greenText\"><b>Successful harvest!</b></span><br>Your pay has increased by $0.02. Your bonus pay is now $1.30.</p>\n            ","response":0,"trial_type":"html-button-response","trial_index":128,"time_elapsed":846742,"internal_node_id":"0.0-4.0-1.58","subject_id":"60e4dde24ae3ef466418b19f","study_id":"6197b3f67c2b5cd3b6d9596a","session_id":"6197b9ee66b27ec7ffa8fef3","condition":"full-information","relevant_dimensions":["wings","legs"],"bee_group":{"antennae":"X","wings":"2","pattern":"X","legs":"F"},"bonus":1.8400000000000012},{"rt":1189.7000000178814,"stimulus":"bees-with-color/bee-A2SF.svg","response":1,"trial_type":"image-button-response","trial_index":129,"time_elapsed":847933,"internal_node_id":"0.0-4.0-0.59","subject_id":"60e4dde24ae3ef466418b19f","study_id":"6197b3f67c2b5cd3b6d9596a","session_id":"6197b9ee66b27ec7ffa8fef3","condition":"full-information","relevant_dimensions":["wings","legs"],"bee_group":{"antennae":"X","wings":"2","pattern":"X","legs":"F"},"action":"avoid","summary":"good-avoid","bonus":1.8400000000000012},{"rt":656.3000000119209,"stimulus":"\n                    <p><b>Action: <em>avoid</em></b></p>\n                    <p>This is the bee that you just saw.</p>\n                    <img src=\"bees-with-color/bee-A2SF.svg\" width=\"200\">\n                    <p><span class=\"greenText\">Good choice!</span>  This bee would have stung you.<br>Your bonus pay is unchanged, and remains at $1.30.</p>\n            ","response":0,"trial_type":"html-button-response","trial_index":130,"time_elapsed":848591,"internal_node_id":"0.0-4.0-1.59","subject_id":"60e4dde24ae3ef466418b19f","study_id":"6197b3f67c2b5cd3b6d9596a","session_id":"6197b9ee66b27ec7ffa8fef3","condition":"full-information","relevant_dimensions":["wings","legs"],"bee_group":{"antennae":"X","wings":"2","pattern":"X","legs":"F"},"bonus":1.8400000000000012},{"rt":1332.800000011921,"stimulus":"bees-with-color/bee-A2DF.svg","response":1,"trial_type":"image-button-response","trial_index":131,"time_elapsed":849925,"internal_node_id":"0.0-4.0-0.60","subject_id":"60e4dde24ae3ef466418b19f","study_id":"6197b3f67c2b5cd3b6d9596a","session_id":"6197b9ee66b27ec7ffa8fef3","condition":"full-information","relevant_dimensions":["wings","legs"],"bee_group":{"antennae":"X","wings":"2","pattern":"X","legs":"F"},"action":"avoid","summary":"good-avoid","bonus":1.8400000000000012},{"rt":695.4000000059605,"stimulus":"\n                    <p><b>Action: <em>avoid</em></b></p>\n                    <p>This is the bee that you just saw.</p>\n                    <img src=\"bees-with-color/bee-A2DF.svg\" width=\"200\">\n                    <p><span class=\"greenText\">Good choice!</span>  This bee would have stung you.<br>Your bonus pay is unchanged, and remains at $1.30.</p>\n            ","response":0,"trial_type":"html-button-response","trial_index":132,"time_elapsed":850622,"internal_node_id":"0.0-4.0-1.60","subject_id":"60e4dde24ae3ef466418b19f","study_id":"6197b3f67c2b5cd3b6d9596a","session_id":"6197b9ee66b27ec7ffa8fef3","condition":"full-information","relevant_dimensions":["wings","legs"],"bee_group":{"antennae":"X","wings":"2","pattern":"X","legs":"F"},"bonus":1.8400000000000012},{"rt":1826.699999988079,"stimulus":"bees-with-color/bee-B1SM.svg","response":0,"trial_type":"image-button-response","trial_index":133,"time_elapsed":852450,"internal_node_id":"0.0-4.0-0.61","subject_id":"60e4dde24ae3ef466418b19f","study_id":"6197b3f67c2b5cd3b6d9596a","session_id":"6197b9ee66b27ec7ffa8fef3","condition":"full-information","relevant_dimensions":["wings","legs"],"bee_group":{"antennae":"X","wings":"2","pattern":"X","legs":"F"},"action":"harvest","summary":"good-harvest","bonus":1.8400000000000012},{"rt":642.9000000059605,"stimulus":"\n                    <p><b>Action: <em>harvest</em></b></p>\n                    <p>This is the bee that you just saw.</p>\n                    <img src=\"bees-with-color/bee-B1SM.svg\" width=\"200\">\n                    <p><span class=\"greenText\"><b>Successful harvest!</b></span><br>Your pay has increased by $0.02. Your bonus pay is now $1.32.</p>\n            ","response":0,"trial_type":"html-button-response","trial_index":134,"time_elapsed":853095,"internal_node_id":"0.0-4.0-1.61","subject_id":"60e4dde24ae3ef466418b19f","study_id":"6197b3f67c2b5cd3b6d9596a","session_id":"6197b9ee66b27ec7ffa8fef3","condition":"full-information","relevant_dimensions":["wings","legs"],"bee_group":{"antennae":"X","wings":"2","pattern":"X","legs":"F"},"bonus":1.8400000000000012},{"rt":3763.5999999940395,"stimulus":"bees-with-color/bee-B1DF.svg","response":0,"trial_type":"image-button-response","trial_index":135,"time_elapsed":856860,"internal_node_id":"0.0-4.0-0.62","subject_id":"60e4dde24ae3ef466418b19f","study_id":"6197b3f67c2b5cd3b6d9596a","session_id":"6197b9ee66b27ec7ffa8fef3","condition":"full-information","relevant_dimensions":["wings","legs"],"bee_group":{"antennae":"X","wings":"2","pattern":"X","legs":"F"},"action":"harvest","summary":"good-harvest","bonus":1.8400000000000012},{"rt":499.5,"stimulus":"\n                    <p><b>Action: <em>harvest</em></b></p>\n                    <p>This is the bee that you just saw.</p>\n                    <img src=\"bees-with-color/bee-B1DF.svg\" width=\"200\">\n                    <p><span class=\"greenText\"><b>Successful harvest!</b></span><br>Your pay has increased by $0.02. Your bonus pay is now $1.34.</p>\n            ","response":0,"trial_type":"html-button-response","trial_index":136,"time_elapsed":857361,"internal_node_id":"0.0-4.0-1.62","subject_id":"60e4dde24ae3ef466418b19f","study_id":"6197b3f67c2b5cd3b6d9596a","session_id":"6197b9ee66b27ec7ffa8fef3","condition":"full-information","relevant_dimensions":["wings","legs"],"bee_group":{"antennae":"X","wings":"2","pattern":"X","legs":"F"},"bonus":1.8400000000000012},{"rt":1371.5,"stimulus":"bees-with-color/bee-A2DM.svg","response":0,"trial_type":"image-button-response","trial_index":137,"time_elapsed":858734,"internal_node_id":"0.0-4.0-0.63","subject_id":"60e4dde24ae3ef466418b19f","study_id":"6197b3f67c2b5cd3b6d9596a","session_id":"6197b9ee66b27ec7ffa8fef3","condition":"full-information","relevant_dimensions":["wings","legs"],"bee_group":{"antennae":"X","wings":"2","pattern":"X","legs":"F"},"action":"harvest","summary":"good-harvest","bonus":1.8400000000000012},{"rt":461.19999998807907,"stimulus":"\n                    <p><b>Action: <em>harvest</em></b></p>\n                    <p>This is the bee that you just saw.</p>\n                    <img src=\"bees-with-color/bee-A2DM.svg\" width=\"200\">\n                    <p><span class=\"greenText\"><b>Successful harvest!</b></span><br>Your pay has increased by $0.02. Your bonus pay is now $1.36.</p>\n            ","response":0,"trial_type":"html-button-response","trial_index":138,"time_elapsed":859197,"internal_node_id":"0.0-4.0-1.63","subject_id":"60e4dde24ae3ef466418b19f","study_id":"6197b3f67c2b5cd3b6d9596a","session_id":"6197b9ee66b27ec7ffa8fef3","condition":"full-information","relevant_dimensions":["wings","legs"],"bee_group":{"antennae":"X","wings":"2","pattern":"X","legs":"F"},"bonus":1.8400000000000012},{"rt":4028.0999999940395,"stimulus":"You have completed the first part of this experiment.<br><br>You will now begin a shorter second part, in which you will receive no feedback.<br>The same rules regarding bonus pay apply.<br><br>Press any key to begin.","response":"enter","trial_type":"html-keyboard-response","trial_index":139,"time_elapsed":863227,"internal_node_id":"0.0-5.0","subject_id":"60e4dde24ae3ef466418b19f","study_id":"6197b3f67c2b5cd3b6d9596a","session_id":"6197b9ee66b27ec7ffa8fef3","condition":"full-information","relevant_dimensions":["wings","legs"],"bee_group":{"antennae":"X","wings":"2","pattern":"X","legs":"F"},"bonus":1.8400000000000012},{"rt":3196.5,"stimulus":"bees-with-color/bee-B2SF.svg","response":1,"trial_type":"image-button-response","trial_index":140,"time_elapsed":866428,"internal_node_id":"0.0-6.0-0.0","subject_id":"60e4dde24ae3ef466418b19f","study_id":"6197b3f67c2b5cd3b6d9596a","session_id":"6197b9ee66b27ec7ffa8fef3","condition":"full-information","relevant_dimensions":["wings","legs"],"bee_group":{"antennae":"X","wings":"2","pattern":"X","legs":"F"},"bonus":1.8400000000000012},{"rt":7376.4000000059605,"stimulus":"bees-with-color/bee-A2DF.svg","response":1,"trial_type":"image-button-response","trial_index":141,"time_elapsed":873807,"internal_node_id":"0.0-6.0-0.1","subject_id":"60e4dde24ae3ef466418b19f","study_id":"6197b3f67c2b5cd3b6d9596a","session_id":"6197b9ee66b27ec7ffa8fef3","condition":"full-information","relevant_dimensions":["wings","legs"],"bee_group":{"antennae":"X","wings":"2","pattern":"X","legs":"F"},"bonus":1.8400000000000012},{"rt":1617.4000000059605,"stimulus":"bees-with-color/bee-A1DM.svg","response":0,"trial_type":"image-button-response","trial_index":142,"time_elapsed":875426,"internal_node_id":"0.0-6.0-0.2","subject_id":"60e4dde24ae3ef466418b19f","study_id":"6197b3f67c2b5cd3b6d9596a","session_id":"6197b9ee66b27ec7ffa8fef3","condition":"full-information","relevant_dimensions":["wings","legs"],"bee_group":{"antennae":"X","wings":"2","pattern":"X","legs":"F"},"bonus":1.8400000000000012},{"rt":2085.9000000059605,"stimulus":"bees-with-color/bee-B1DM.svg","response":0,"trial_type":"image-button-response","trial_index":143,"time_elapsed":877514,"internal_node_id":"0.0-6.0-0.3","subject_id":"60e4dde24ae3ef466418b19f","study_id":"6197b3f67c2b5cd3b6d9596a","session_id":"6197b9ee66b27ec7ffa8fef3","condition":"full-information","relevant_dimensions":["wings","legs"],"bee_group":{"antennae":"X","wings":"2","pattern":"X","legs":"F"},"bonus":1.8400000000000012},{"rt":1305.7999999821186,"stimulus":"bees-with-color/bee-B1SM.svg","response":0,"trial_type":"image-button-response","trial_index":144,"time_elapsed":878822,"internal_node_id":"0.0-6.0-0.4","subject_id":"60e4dde24ae3ef466418b19f","study_id":"6197b3f67c2b5cd3b6d9596a","session_id":"6197b9ee66b27ec7ffa8fef3","condition":"full-information","relevant_dimensions":["wings","legs"],"bee_group":{"antennae":"X","wings":"2","pattern":"X","legs":"F"},"bonus":1.8400000000000012},{"rt":1123.9000000059605,"stimulus":"bees-with-color/bee-A2DM.svg","response":0,"trial_type":"image-button-response","trial_index":145,"time_elapsed":879948,"internal_node_id":"0.0-6.0-0.5","subject_id":"60e4dde24ae3ef466418b19f","study_id":"6197b3f67c2b5cd3b6d9596a","session_id":"6197b9ee66b27ec7ffa8fef3","condition":"full-information","relevant_dimensions":["wings","legs"],"bee_group":{"antennae":"X","wings":"2","pattern":"X","legs":"F"},"bonus":1.8400000000000012},{"rt":1201.9000000059605,"stimulus":"bees-with-color/bee-A2SM.svg","response":0,"trial_type":"image-button-response","trial_index":146,"time_elapsed":881152,"internal_node_id":"0.0-6.0-0.6","subject_id":"60e4dde24ae3ef466418b19f","study_id":"6197b3f67c2b5cd3b6d9596a","session_id":"6197b9ee66b27ec7ffa8fef3","condition":"full-information","relevant_dimensions":["wings","legs"],"bee_group":{"antennae":"X","wings":"2","pattern":"X","legs":"F"},"bonus":1.8400000000000012},{"rt":1474.800000011921,"stimulus":"bees-with-color/bee-A1SF.svg","response":0,"trial_type":"image-button-response","trial_index":147,"time_elapsed":882629,"internal_node_id":"0.0-6.0-0.7","subject_id":"60e4dde24ae3ef466418b19f","study_id":"6197b3f67c2b5cd3b6d9596a","session_id":"6197b9ee66b27ec7ffa8fef3","condition":"full-information","relevant_dimensions":["wings","legs"],"bee_group":{"antennae":"X","wings":"2","pattern":"X","legs":"F"},"bonus":1.8400000000000012},{"rt":4009.699999988079,"stimulus":"bees-with-color/bee-B2DF.svg","response":1,"trial_type":"image-button-response","trial_index":148,"time_elapsed":886641,"internal_node_id":"0.0-6.0-0.8","subject_id":"60e4dde24ae3ef466418b19f","study_id":"6197b3f67c2b5cd3b6d9596a","session_id":"6197b9ee66b27ec7ffa8fef3","condition":"full-information","relevant_dimensions":["wings","legs"],"bee_group":{"antennae":"X","wings":"2","pattern":"X","legs":"F"},"bonus":1.8400000000000012},{"rt":1318.4000000059605,"stimulus":"bees-with-color/bee-B1DF.svg","response":0,"trial_type":"image-button-response","trial_index":149,"time_elapsed":887962,"internal_node_id":"0.0-6.0-0.9","subject_id":"60e4dde24ae3ef466418b19f","study_id":"6197b3f67c2b5cd3b6d9596a","session_id":"6197b9ee66b27ec7ffa8fef3","condition":"full-information","relevant_dimensions":["wings","legs"],"bee_group":{"antennae":"X","wings":"2","pattern":"X","legs":"F"},"bonus":1.8400000000000012},{"rt":928.8000000119209,"stimulus":"bees-with-color/bee-A1SM.svg","response":0,"trial_type":"image-button-response","trial_index":150,"time_elapsed":888893,"internal_node_id":"0.0-6.0-0.10","subject_id":"60e4dde24ae3ef466418b19f","study_id":"6197b3f67c2b5cd3b6d9596a","session_id":"6197b9ee66b27ec7ffa8fef3","condition":"full-information","relevant_dimensions":["wings","legs"],"bee_group":{"antennae":"X","wings":"2","pattern":"X","legs":"F"},"bonus":1.8400000000000012},{"rt":1175.9000000059605,"stimulus":"bees-with-color/bee-B2SM.svg","response":0,"trial_type":"image-button-response","trial_index":151,"time_elapsed":890071,"internal_node_id":"0.0-6.0-0.11","subject_id":"60e4dde24ae3ef466418b19f","study_id":"6197b3f67c2b5cd3b6d9596a","session_id":"6197b9ee66b27ec7ffa8fef3","condition":"full-information","relevant_dimensions":["wings","legs"],"bee_group":{"antennae":"X","wings":"2","pattern":"X","legs":"F"},"bonus":1.8400000000000012},{"rt":3008.4000000059605,"stimulus":"bees-with-color/bee-B2DM.svg","response":0,"trial_type":"image-button-response","trial_index":152,"time_elapsed":893081,"internal_node_id":"0.0-6.0-0.12","subject_id":"60e4dde24ae3ef466418b19f","study_id":"6197b3f67c2b5cd3b6d9596a","session_id":"6197b9ee66b27ec7ffa8fef3","condition":"full-information","relevant_dimensions":["wings","legs"],"bee_group":{"antennae":"X","wings":"2","pattern":"X","legs":"F"},"bonus":1.8400000000000012},{"rt":1409.7000000178814,"stimulus":"bees-with-color/bee-A2SF.svg","response":1,"trial_type":"image-button-response","trial_index":153,"time_elapsed":894493,"internal_node_id":"0.0-6.0-0.13","subject_id":"60e4dde24ae3ef466418b19f","study_id":"6197b3f67c2b5cd3b6d9596a","session_id":"6197b9ee66b27ec7ffa8fef3","condition":"full-information","relevant_dimensions":["wings","legs"],"bee_group":{"antennae":"X","wings":"2","pattern":"X","legs":"F"},"bonus":1.8400000000000012},{"rt":1994.5,"stimulus":"bees-with-color/bee-B1SF.svg","response":0,"trial_type":"image-button-response","trial_index":154,"time_elapsed":896490,"internal_node_id":"0.0-6.0-0.14","subject_id":"60e4dde24ae3ef466418b19f","study_id":"6197b3f67c2b5cd3b6d9596a","session_id":"6197b9ee66b27ec7ffa8fef3","condition":"full-information","relevant_dimensions":["wings","legs"],"bee_group":{"antennae":"X","wings":"2","pattern":"X","legs":"F"},"bonus":1.8400000000000012},{"rt":798.9000000059605,"stimulus":"bees-with-color/bee-A1DF.svg","response":0,"trial_type":"image-button-response","trial_index":155,"time_elapsed":897291,"internal_node_id":"0.0-6.0-0.15","subject_id":"60e4dde24ae3ef466418b19f","study_id":"6197b3f67c2b5cd3b6d9596a","session_id":"6197b9ee66b27ec7ffa8fef3","condition":"full-information","relevant_dimensions":["wings","legs"],"bee_group":{"antennae":"X","wings":"2","pattern":"X","legs":"F"},"bonus":1.8400000000000012},{"rt":1202.300000011921,"stimulus":"bees-with-color/bee-B2SF.svg","response":1,"trial_type":"image-button-response","trial_index":156,"time_elapsed":898495,"internal_node_id":"0.0-6.0-0.16","subje